"","Consigne.started","Consigne.stopped","Key_resp1.keys","Key_resp1.rt","Key_resp1.duration","participant","session","date","expName","psychopyVersion","OS","frameRate","IMAGES.started","IMAGES.stopped","SAM.started","SAM.stopped","Plaisir.response","Plaisir.rt","EVEIL.response","EVEIL.rt","trials.thisRepN","trials.thisTrialN","trials.thisN","trials.thisIndex","trials.ran","ImageFile","ImagesDistracteursFile","Test","Calcul.started","Calcul.stopped","Key_response.keys","Key_response.rt","Key_response.duration","Consigne_reco.started","Consigne_reco.stopped","key_resp_reconn.keys","key_resp_reconn.rt","key_resp_reconn.duration","DISTRACTEURS.started","DISTRACTEURS.stopped","mouse.x","mouse.y","mouse.leftButton","mouse.midButton","mouse.rightButton","mouse.time","mouse.clicked_name","trials_2.thisRepN","trials_2.thisTrialN","trials_2.thisN","trials_2.thisIndex","trials_2.ran","MERCI.started","MERCI.stopped","condition"
"1",NA,NA,"",NA,NA,"452363",1,"2024-12-27_15h02.45.941","Emotion.Memoire.2024","2024.1.5","MacIntel",30.3030303,107.857,117.861,117.869,160.095,5,28.309,4,42.207,0,0,0,0,1,"IMAGES_EXP_mp4_40/FIXES/FIX-NEGATIF-mp4/Image6.mp4","DISTRACTEURS-40/DIST.ANIMÉES-20/10.NÉGATIFS/Dist.animee.negatif10.mp4","IMAGES_EXP_mp4_40/ANIMEES/10- ANIMEES --NEGATIVES /Video1.mp4",NA,NA,"",NA,NA,NA,NA,"",NA,NA,NA,NA,NA,NA,NA,NA,NA,NA,"",NA,NA,NA,NA,NA,NA,NA,"Fixed"
"2",NA,NA,"",NA,NA,"452363",1,"2024-12-27_15h02.45.941","Emotion.Memoire.2024","2024.1.5","MacIntel",30.3030303,160.1,170.093,170.094,183.76,8,7.017,3,13.642,0,1,1,1,1,"IMAGES_EXP_mp4_40/FIXES/FIX-NEUTRE-mp4/image9.mp4","DISTRACTEURS-40/DIST.ANIMÉES-20/10.NEUTRES/Dist.animee.neutre3.mp4","DISTRACTEURS-40/DIST.FIXES-20/10.NÉGATIFS/Dist.fix.negatif3.mp4",NA,NA,"",NA,NA,NA,NA,"",NA,NA,NA,NA,NA,NA,NA,NA,NA,NA,"",NA,NA,NA,NA,NA,NA,NA,"Fixed"
"3",NA,NA,"",NA,NA,"452363",1,"2024-12-27_15h02.45.941","Emotion.Memoire.2024","2024.1.5","MacIntel",30.3030303,183.761,193.759,193.76,206.393,5,6.349,4,12.619,0,2,2,2,1,"IMAGES_EXP_mp4_40/FIXES/FIX-NEGATIF-mp4/Image6.mp4","IMAGES_EXP_mp4_40/ANIMEES/10- ANIMEES --NEGATIVES /Video2.mp4","DISTRACTEURS-40/DIST.FIXES-20/10.NÉGATIFS/Dist.fix.negatif5.mp4",NA,NA,"",NA,NA,NA,NA,"",NA,NA,NA,NA,NA,NA,NA,NA,NA,NA,"",NA,NA,NA,NA,NA,NA,NA,"Fixed"
"4",NA,NA,"",NA,NA,"452363",1,"2024-12-27_15h02.45.941","Emotion.Memoire.2024","2024.1.5","MacIntel",30.3030303,206.394,206.467,206.468,227.393,5,20.31,5,20.908,0,3,3,3,1,"IMAGES_EXP_mp4_40/FIXES/FIX-NEGATIF-mp4/Image4.mp4","IMAGES_EXP_mp4_40/FIXES/FIX-NEUTRE-mp4/image6.mp4","",NA,NA,"",NA,NA,NA,NA,"",NA,NA,NA,NA,NA,NA,NA,NA,NA,NA,"",NA,NA,NA,NA,NA,NA,NA,"Fixed"
"5",NA,NA,"",NA,NA,"452363",1,"2024-12-27_15h02.45.941","Emotion.Memoire.2024","2024.1.5","MacIntel",30.3030303,227.393,237.392,237.393,248.859,4,7.24,3,11.455,0,4,4,4,1,"IMAGES_EXP_mp4_40/FIXES/FIX-NEGATIF-mp4/Image10.mp4","IMAGES_EXP_mp4_40/FIXES/FIX-NEUTRE-mp4/image2.mp4","",NA,NA,"",NA,NA,NA,NA,"",NA,NA,NA,NA,NA,NA,NA,NA,NA,NA,"",NA,NA,NA,NA,NA,NA,NA,"Fixed"
"6",NA,NA,"",NA,NA,"452363",1,"2024-12-27_15h02.45.941","Emotion.Memoire.2024","2024.1.5","MacIntel",30.3030303,248.859,258.859,258.86,274.226,8,4.856,3,15.351,0,5,5,5,1,"IMAGES_EXP_mp4_40/ANIMEES/11-ANIMEES --- NEUTRES /video10.mp4","DISTRACTEURS-40/DIST.FIXES-20/10.NEUTRES /Dist.fix.neutre7.mp4","",NA,NA,"",NA,NA,NA,NA,"",NA,NA,NA,NA,NA,NA,NA,NA,NA,NA,"",NA,NA,NA,NA,NA,NA,NA,"Animated"
"7",NA,NA,"",NA,NA,"452363",1,"2024-12-27_15h02.45.941","Emotion.Memoire.2024","2024.1.5","MacIntel",30.3030303,274.226,279.858,279.859,293.124,1,6.308,6,13.251,0,6,6,6,1,"IMAGES_EXP_mp4_40/ANIMEES/10- ANIMEES --NEGATIVES /Video4.mp4","DISTRACTEURS-40/DIST.ANIMÉES-20/10.NÉGATIFS/Dist.animee.negatif4.mp4","",NA,NA,"",NA,NA,NA,NA,"",NA,NA,NA,NA,NA,NA,NA,NA,NA,NA,"",NA,NA,NA,NA,NA,NA,NA,"Animated"
"8",NA,NA,"",NA,NA,"452363",1,"2024-12-27_15h02.45.941","Emotion.Memoire.2024","2024.1.5","MacIntel",30.3030303,293.125,303.125,303.125,314.859,7,6.38,4,11.719,0,7,7,7,1,"IMAGES_EXP_mp4_40/FIXES/FIX-NEUTRE-mp4/image10.mp4","IMAGES_EXP_mp4_40/FIXES/FIX-NEGATIF-mp4/Image2.mp4","",NA,NA,"",NA,NA,NA,NA,"",NA,NA,NA,NA,NA,NA,NA,NA,NA,NA,"",NA,NA,NA,NA,NA,NA,NA,"Fixed"
"9",NA,NA,"",NA,NA,"452363",1,"2024-12-27_15h02.45.941","Emotion.Memoire.2024","2024.1.5","MacIntel",30.3030303,314.86,324.86,324.86,329.758,1,2.087,7,4.886,0,8,8,8,1,"IMAGES_EXP_mp4_40/ANIMEES/10- ANIMEES --NEGATIVES /Video1.mp4","IMAGES_EXP_mp4_40/FIXES/FIX-NEGATIF-mp4/Image9.mp4","",NA,NA,"",NA,NA,NA,NA,"",NA,NA,NA,NA,NA,NA,NA,NA,NA,NA,"",NA,NA,NA,NA,NA,NA,NA,"Animated"
"10",NA,NA,"",NA,NA,"452363",1,"2024-12-27_15h02.45.941","Emotion.Memoire.2024","2024.1.5","MacIntel",30.3030303,329.758,339.758,339.759,345.458,3,2.922,5,5.684,0,9,9,9,1,"IMAGES_EXP_mp4_40/FIXES/FIX-NEUTRE-mp4/image4.mp4","DISTRACTEURS-40/DIST.FIXES-20/10.NEUTRES /Dist.fix.neutre8.mp4","",NA,NA,"",NA,NA,NA,NA,"",NA,NA,NA,NA,NA,NA,NA,NA,NA,NA,"",NA,NA,NA,NA,NA,NA,NA,"Fixed"
"11",NA,NA,"",NA,NA,"452363",1,"2024-12-27_15h02.45.941","Emotion.Memoire.2024","2024.1.5","MacIntel",30.3030303,345.459,355.458,355.459,364.89,5,4.418,4,9.418,0,10,10,10,1,"IMAGES_EXP_mp4_40/ANIMEES/11-ANIMEES --- NEUTRES /video6.mp4","DISTRACTEURS-40/DIST.ANIMÉES-20/10.NÉGATIFS/Dist.animee.negatif8.mp4","",NA,NA,"",NA,NA,NA,NA,"",NA,NA,NA,NA,NA,NA,NA,NA,NA,NA,"",NA,NA,NA,NA,NA,NA,NA,"Animated"
"12",NA,NA,"",NA,NA,"452363",1,"2024-12-27_15h02.45.941","Emotion.Memoire.2024","2024.1.5","MacIntel",30.3030303,364.891,374.891,374.891,387.226,5,8.689,4,12.318,0,11,11,11,1,"IMAGES_EXP_mp4_40/ANIMEES/11-ANIMEES --- NEUTRES /video9.mp4","IMAGES_EXP_mp4_40/ANIMEES/11-ANIMEES --- NEUTRES /video8.mp4","",NA,NA,"",NA,NA,NA,NA,"",NA,NA,NA,NA,NA,NA,NA,NA,NA,NA,"",NA,NA,NA,NA,NA,NA,NA,"Animated"
"13",NA,NA,"",NA,NA,"452363",1,"2024-12-27_15h02.45.941","Emotion.Memoire.2024","2024.1.5","MacIntel",30.3030303,387.226,397.223,397.225,403.856,7,2.823,3,6.617,0,12,12,12,1,"IMAGES_EXP_mp4_40/FIXES/FIX-NEUTRE-mp4/image8.mp4","IMAGES_EXP_mp4_40/ANIMEES/10- ANIMEES --NEGATIVES /Video8.mp4","",NA,NA,"",NA,NA,NA,NA,"",NA,NA,NA,NA,NA,NA,NA,NA,NA,NA,"",NA,NA,NA,NA,NA,NA,NA,"Fixed"
"14",NA,NA,"",NA,NA,"452363",1,"2024-12-27_15h02.45.941","Emotion.Memoire.2024","2024.1.5","MacIntel",30.3030303,403.857,413.857,413.858,420.29,8,2.985,6,6.421,0,13,13,13,1,"IMAGES_EXP_mp4_40/ANIMEES/11-ANIMEES --- NEUTRES /video5.mp4","DISTRACTEURS-40/DIST.FIXES-20/10.NÉGATIFS/Dist.fix.negatif8.mp4","",NA,NA,"",NA,NA,NA,NA,"",NA,NA,NA,NA,NA,NA,NA,NA,NA,NA,"",NA,NA,NA,NA,NA,NA,NA,"Animated"
"15",NA,NA,"",NA,NA,"452363",1,"2024-12-27_15h02.45.941","Emotion.Memoire.2024","2024.1.5","MacIntel",30.3030303,420.29,430.29,430.29,441.656,3,5.441,8,11.352,0,14,14,14,1,"IMAGES_EXP_mp4_40/ANIMEES/11-ANIMEES --- NEUTRES /video1.mp4","DISTRACTEURS-40/DIST.FIXES-20/10.NEUTRES /Dist.fix.neutre2.mp4","",NA,NA,"",NA,NA,NA,NA,"",NA,NA,NA,NA,NA,NA,NA,NA,NA,NA,"",NA,NA,NA,NA,NA,NA,NA,"Animated"
"16",NA,NA,"",NA,NA,"452363",1,"2024-12-27_15h02.45.941","Emotion.Memoire.2024","2024.1.5","MacIntel",30.3030303,441.656,451.355,451.356,460.123,1,4.121,6,8.752,0,15,15,15,1,"IMAGES_EXP_mp4_40/ANIMEES/10- ANIMEES --NEGATIVES /Video9.mp4","DISTRACTEURS-40/DIST.ANIMÉES-20/10.NEUTRES/Dist.animee.neutre10.mp4","",NA,NA,"",NA,NA,NA,NA,"",NA,NA,NA,NA,NA,NA,NA,NA,NA,NA,"",NA,NA,NA,NA,NA,NA,NA,"Animated"
"17",NA,NA,"",NA,NA,"452363",1,"2024-12-27_15h02.45.941","Emotion.Memoire.2024","2024.1.5","MacIntel",30.3030303,460.125,469.022,469.023,473.123,2,1.317,7,4.078,0,16,16,16,1,"IMAGES_EXP_mp4_40/ANIMEES/10- ANIMEES --NEGATIVES /Video8.mp4","DISTRACTEURS-40/DIST.FIXES-20/10.NEUTRES /Dist.fix.neutre5.mp4","",NA,NA,"",NA,NA,NA,NA,"",NA,NA,NA,NA,NA,NA,NA,NA,NA,NA,"",NA,NA,NA,NA,NA,NA,NA,"Animated"
"18",NA,NA,"",NA,NA,"452363",1,"2024-12-27_15h02.45.941","Emotion.Memoire.2024","2024.1.5","MacIntel",30.3030303,473.123,473.19,473.19,477.389,5,3.356,5,4.19,0,17,17,17,1,"IMAGES_EXP_mp4_40/FIXES/FIX-NEGATIF-mp4/Image5.mp4","DISTRACTEURS-40/DIST.ANIMÉES-20/10.NEUTRES/Dist.animee.neutre1.mp4","",NA,NA,"",NA,NA,NA,NA,"",NA,NA,NA,NA,NA,NA,NA,NA,NA,NA,"",NA,NA,NA,NA,NA,NA,NA,"Fixed"
"19",NA,NA,"",NA,NA,"452363",1,"2024-12-27_15h02.45.941","Emotion.Memoire.2024","2024.1.5","MacIntel",30.3030303,477.389,487.389,487.39,491.956,5,2.187,4,4.551,0,18,18,18,1,"IMAGES_EXP_mp4_40/ANIMEES/11-ANIMEES --- NEUTRES /video2.mp4","IMAGES_EXP_mp4_40/FIXES/FIX-NEUTRE-mp4/image5.mp4","",NA,NA,"",NA,NA,NA,NA,"",NA,NA,NA,NA,NA,NA,NA,NA,NA,NA,"",NA,NA,NA,NA,NA,NA,NA,"Animated"
"20",NA,NA,"",NA,NA,"452363",1,"2024-12-27_15h02.45.941","Emotion.Memoire.2024","2024.1.5","MacIntel",30.3030303,491.956,501.957,501.957,507.722,2,2.084,8,5.751,0,19,19,19,1,"IMAGES_EXP_mp4_40/ANIMEES/10- ANIMEES --NEGATIVES /Video7.mp4","IMAGES_EXP_mp4_40/FIXES/FIX-NEUTRE-mp4/image7.mp4","",NA,NA,"",NA,NA,NA,NA,"",NA,NA,NA,NA,NA,NA,NA,NA,NA,NA,"",NA,NA,NA,NA,NA,NA,NA,"Animated"
"21",NA,NA,"",NA,NA,"452363",1,"2024-12-27_15h02.45.941","Emotion.Memoire.2024","2024.1.5","MacIntel",30.3030303,507.723,517.722,517.723,523.321,5,2.923,2,5.587,0,20,20,20,1,"IMAGES_EXP_mp4_40/FIXES/FIX-NEUTRE-mp4/image5.mp4","IMAGES_EXP_mp4_40/ANIMEES/10- ANIMEES --NEGATIVES /Video10.mp4","",NA,NA,"",NA,NA,NA,NA,"",NA,NA,NA,NA,NA,NA,NA,NA,NA,NA,"",NA,NA,NA,NA,NA,NA,NA,"Fixed"
"22",NA,NA,"",NA,NA,"452363",1,"2024-12-27_15h02.45.941","Emotion.Memoire.2024","2024.1.5","MacIntel",30.3030303,523.321,533.322,533.322,542.288,7,5.907,1,8.954,0,21,21,21,1,"IMAGES_EXP_mp4_40/ANIMEES/11-ANIMEES --- NEUTRES /video3.mp4","IMAGES_EXP_mp4_40/ANIMEES/10- ANIMEES --NEGATIVES /Video4.mp4","",NA,NA,"",NA,NA,NA,NA,"",NA,NA,NA,NA,NA,NA,NA,NA,NA,NA,"",NA,NA,NA,NA,NA,NA,NA,"Animated"
"23",NA,NA,"",NA,NA,"452363",1,"2024-12-27_15h02.45.941","Emotion.Memoire.2024","2024.1.5","MacIntel",30.3030303,542.289,552.288,552.289,558.091,3,3.19,7,5.801,0,22,22,22,1,"IMAGES_EXP_mp4_40/ANIMEES/10- ANIMEES --NEGATIVES /Video5.mp4","IMAGES_EXP_mp4_40/ANIMEES/10- ANIMEES --NEGATIVES /Video5.mp4","",NA,NA,"",NA,NA,NA,NA,"",NA,NA,NA,NA,NA,NA,NA,NA,NA,NA,"",NA,NA,NA,NA,NA,NA,NA,"Animated"
"24",NA,NA,"",NA,NA,"452363",1,"2024-12-27_15h02.45.941","Emotion.Memoire.2024","2024.1.5","MacIntel",30.3030303,558.091,565.355,565.356,571.256,3,4.023,8,5.884,0,23,23,23,1,"IMAGES_EXP_mp4_40/ANIMEES/11-ANIMEES --- NEUTRES /video7.mp4","IMAGES_EXP_mp4_40/ANIMEES/11-ANIMEES --- NEUTRES /video6.mp4","",NA,NA,"",NA,NA,NA,NA,"",NA,NA,NA,NA,NA,NA,NA,NA,NA,NA,"",NA,NA,NA,NA,NA,NA,NA,"Animated"
"25",NA,NA,"",NA,NA,"452363",1,"2024-12-27_15h02.45.941","Emotion.Memoire.2024","2024.1.5","MacIntel",30.3030303,571.256,581.255,581.255,590.087,3,4.789,6,8.818,0,24,24,24,1,"IMAGES_EXP_mp4_40/FIXES/FIX-NEGATIF-mp4/Image8.mp4","IMAGES_EXP_mp4_40/ANIMEES/11-ANIMEES --- NEUTRES /video5.mp4","",NA,NA,"",NA,NA,NA,NA,"",NA,NA,NA,NA,NA,NA,NA,NA,NA,NA,"",NA,NA,NA,NA,NA,NA,NA,"Fixed"
"26",NA,NA,"",NA,NA,"452363",1,"2024-12-27_15h02.45.941","Emotion.Memoire.2024","2024.1.5","MacIntel",30.3030303,590.087,592.159,592.159,599.588,2,3.878,9,7.415,0,25,25,25,1,"IMAGES_EXP_mp4_40/FIXES/FIX-NEGATIF-mp4/Image2.mp4","DISTRACTEURS-40/DIST.ANIMÉES-20/10.NÉGATIFS/Dist.animee.negatif5.mp4","",NA,NA,"",NA,NA,NA,NA,"",NA,NA,NA,NA,NA,NA,NA,NA,NA,NA,"",NA,NA,NA,NA,NA,NA,NA,"Fixed"
"27",NA,NA,"",NA,NA,"452363",1,"2024-12-27_15h02.45.941","Emotion.Memoire.2024","2024.1.5","MacIntel",30.3030303,599.588,609.586,609.587,619.087,5,4.416,7,9.475,0,26,26,26,1,"IMAGES_EXP_mp4_40/FIXES/FIX-NEUTRE-mp4/image7.mp4","DISTRACTEURS-40/DIST.ANIMÉES-20/10.NEUTRES/Dist.animee.neutre4.mp4","",NA,NA,"",NA,NA,NA,NA,"",NA,NA,NA,NA,NA,NA,NA,NA,NA,NA,"",NA,NA,NA,NA,NA,NA,NA,"Fixed"
"28",NA,NA,"",NA,NA,"452363",1,"2024-12-27_15h02.45.941","Emotion.Memoire.2024","2024.1.5","MacIntel",30.3030303,619.087,629.088,629.088,633.853,7,2.255,6,4.755,0,27,27,27,1,"IMAGES_EXP_mp4_40/ANIMEES/11-ANIMEES --- NEUTRES /video4.mp4","DISTRACTEURS-40/DIST.FIXES-20/10.NEUTRES /Dist.fix.neutre10.mp4","",NA,NA,"",NA,NA,NA,NA,"",NA,NA,NA,NA,NA,NA,NA,NA,NA,NA,"",NA,NA,NA,NA,NA,NA,NA,"Animated"
"29",NA,NA,"",NA,NA,"452363",1,"2024-12-27_15h02.45.941","Emotion.Memoire.2024","2024.1.5","MacIntel",30.3030303,633.854,635.954,635.954,648.954,2,3.119,5,12.988,0,28,28,28,1,"IMAGES_EXP_mp4_40/FIXES/FIX-NEGATIF-mp4/Image1.mp4","IMAGES_EXP_mp4_40/FIXES/FIX-NEGATIF-mp4/Image3.mp4","",NA,NA,"",NA,NA,NA,NA,"",NA,NA,NA,NA,NA,NA,NA,NA,NA,NA,"",NA,NA,NA,NA,NA,NA,NA,"Fixed"
"30",NA,NA,"",NA,NA,"452363",1,"2024-12-27_15h02.45.941","Emotion.Memoire.2024","2024.1.5","MacIntel",30.3030303,648.954,658.953,658.954,665.886,4,2.689,3,6.917,0,29,29,29,1,"IMAGES_EXP_mp4_40/ANIMEES/10- ANIMEES --NEGATIVES /Video10.mp4","DISTRACTEURS-40/DIST.FIXES-20/10.NÉGATIFS/Dist.fix.negatif6.mp4","",NA,NA,"",NA,NA,NA,NA,"",NA,NA,NA,NA,NA,NA,NA,NA,NA,NA,"",NA,NA,NA,NA,NA,NA,NA,"Animated"
"31",NA,NA,"",NA,NA,"452363",1,"2024-12-27_15h02.45.941","Emotion.Memoire.2024","2024.1.5","MacIntel",30.3030303,665.888,675.887,675.888,684.453,7,3.252,3,8.555,0,30,30,30,1,"IMAGES_EXP_mp4_40/ANIMEES/11-ANIMEES --- NEUTRES /video8.mp4","IMAGES_EXP_mp4_40/ANIMEES/11-ANIMEES --- NEUTRES /video1.mp4","",NA,NA,"",NA,NA,NA,NA,"",NA,NA,NA,NA,NA,NA,NA,NA,NA,NA,"",NA,NA,NA,NA,NA,NA,NA,"Animated"
"32",NA,NA,"",NA,NA,"452363",1,"2024-12-27_15h02.45.941","Emotion.Memoire.2024","2024.1.5","MacIntel",30.3030303,684.454,694.453,694.454,700.52,5,3.789,2,6.046,0,31,31,31,1,"IMAGES_EXP_mp4_40/FIXES/FIX-NEUTRE-mp4/image6.mp4","IMAGES_EXP_mp4_40/FIXES/FIX-NEUTRE-mp4/image9.mp4","",NA,NA,"",NA,NA,NA,NA,"",NA,NA,NA,NA,NA,NA,NA,NA,NA,NA,"",NA,NA,NA,NA,NA,NA,NA,"Fixed"
"33",NA,NA,"",NA,NA,"452363",1,"2024-12-27_15h02.45.941","Emotion.Memoire.2024","2024.1.5","MacIntel",30.3030303,700.52,710.52,710.52,715.685,3,3.356,8,5.145,0,32,32,32,1,"IMAGES_EXP_mp4_40/ANIMEES/10- ANIMEES --NEGATIVES /Video2.mp4","IMAGES_EXP_mp4_40/ANIMEES/10- ANIMEES --NEGATIVES /Video6.mp4","",NA,NA,"",NA,NA,NA,NA,"",NA,NA,NA,NA,NA,NA,NA,NA,NA,NA,"",NA,NA,NA,NA,NA,NA,NA,"Animated"
"34",NA,NA,"",NA,NA,"452363",1,"2024-12-27_15h02.45.941","Emotion.Memoire.2024","2024.1.5","MacIntel",30.3030303,715.687,725.686,725.687,735.886,4,6.085,2,10.187,0,33,33,33,1,"IMAGES_EXP_mp4_40/ANIMEES/10- ANIMEES --NEGATIVES /Video3.mp4","IMAGES_EXP_mp4_40/ANIMEES/11-ANIMEES --- NEUTRES /video3.mp4","",NA,NA,"",NA,NA,NA,NA,"",NA,NA,NA,NA,NA,NA,NA,NA,NA,NA,"",NA,NA,NA,NA,NA,NA,NA,"Animated"
"35",NA,NA,"",NA,NA,"452363",1,"2024-12-27_15h02.45.941","Emotion.Memoire.2024","2024.1.5","MacIntel",30.3030303,735.887,745.885,745.886,757.352,6,8.009,5,11.453,0,34,34,34,1,"IMAGES_EXP_mp4_40/FIXES/FIX-NEUTRE-mp4/image2.mp4","DISTRACTEURS-40/DIST.ANIMÉES-20/10.NÉGATIFS/Dist.animee.negatif7.mp4","",NA,NA,"",NA,NA,NA,NA,"",NA,NA,NA,NA,NA,NA,NA,NA,NA,NA,"",NA,NA,NA,NA,NA,NA,NA,"Fixed"
"36",NA,NA,"",NA,NA,"452363",1,"2024-12-27_15h02.45.941","Emotion.Memoire.2024","2024.1.5","MacIntel",30.3030303,757.352,767.351,767.352,773.018,5,3.458,2,5.642,0,35,35,35,1,"IMAGES_EXP_mp4_40/FIXES/FIX-NEUTRE-mp4/image3.mp4","IMAGES_EXP_mp4_40/ANIMEES/11-ANIMEES --- NEUTRES /video9.mp4","",NA,NA,"",NA,NA,NA,NA,"",NA,NA,NA,NA,NA,NA,NA,NA,NA,NA,"",NA,NA,NA,NA,NA,NA,NA,"Fixed"
"37",NA,NA,"",NA,NA,"452363",1,"2024-12-27_15h02.45.941","Emotion.Memoire.2024","2024.1.5","MacIntel",30.3030303,773.018,783.072,783.073,795.485,4,10.097,2,12.387,0,36,36,36,1,"IMAGES_EXP_mp4_40/FIXES/FIX-NEGATIF-mp4/Image9.mp4","DISTRACTEURS-40/DIST.ANIMÉES-20/10.NEUTRES/Dist.animee.neutre6.mp4","",NA,NA,"",NA,NA,NA,NA,"",NA,NA,NA,NA,NA,NA,NA,NA,NA,NA,"",NA,NA,NA,NA,NA,NA,NA,"Fixed"
"38",NA,NA,"",NA,NA,"452363",1,"2024-12-27_15h02.45.941","Emotion.Memoire.2024","2024.1.5","MacIntel",30.3030303,795.485,805.485,805.486,825.417,4,15.616,6,19.907,0,37,37,37,1,"IMAGES_EXP_mp4_40/FIXES/FIX-NEGATIF-mp4/Image7.mp4","IMAGES_EXP_mp4_40/FIXES/FIX-NEGATIF-mp4/Image8.mp4","",NA,NA,"",NA,NA,NA,NA,"",NA,NA,NA,NA,NA,NA,NA,NA,NA,NA,"",NA,NA,NA,NA,NA,NA,NA,"Fixed"
"39",NA,NA,"",NA,NA,"452363",1,"2024-12-27_15h02.45.941","Emotion.Memoire.2024","2024.1.5","MacIntel",30.3030303,825.417,835.419,835.42,843.285,2,5.287,7,7.85,0,38,38,38,1,"IMAGES_EXP_mp4_40/ANIMEES/10- ANIMEES --NEGATIVES /Video6.mp4","IMAGES_EXP_mp4_40/FIXES/FIX-NEUTRE-mp4/image8.mp4","",NA,NA,"",NA,NA,NA,NA,"",NA,NA,NA,NA,NA,NA,NA,NA,NA,NA,"",NA,NA,NA,NA,NA,NA,NA,"Animated"
"40",NA,NA,"",NA,NA,"452363",1,"2024-12-27_15h02.45.941","Emotion.Memoire.2024","2024.1.5","MacIntel",30.3030303,843.285,853.285,853.285,861.15,5,2.179,3,7.851,0,39,39,39,1,"IMAGES_EXP_mp4_40/FIXES/FIX-NEUTRE-mp4/image1.mp4","IMAGES_EXP_mp4_40/ANIMEES/11-ANIMEES --- NEUTRES /video7.mp4","",NA,NA,"",NA,NA,NA,NA,"",NA,NA,NA,NA,NA,NA,NA,NA,NA,NA,"",NA,NA,NA,NA,NA,NA,NA,"Fixed"
"41",NA,NA,"",NA,NA,"524648",1,"2025-02-25_20h07.15.941","Emotion.Memoire.2024","2024.1.5","MacIntel",20,70.0781,80.0585,80.0604,105.6384,5,18.6423,6,25.577,0,0,0,0,1,"IMAGES_EXP_mp4_40/FIXES/FIX-NEGATIF-mp4/Image6.mp4","DISTRACTEURS-40/DIST.ANIMÉES-20/10.NÉGATIFS/Dist.animee.negatif10.mp4","IMAGES_EXP_mp4_40/ANIMEES/10- ANIMEES --NEGATIVES /Video1.mp4",NA,NA,"",NA,NA,NA,NA,"",NA,NA,NA,NA,NA,NA,NA,NA,NA,NA,"",NA,NA,NA,NA,NA,NA,NA,"Fixed"
"42",NA,NA,"",NA,NA,"524648",1,"2025-02-25_20h07.15.941","Emotion.Memoire.2024","2024.1.5","MacIntel",20,105.6389,115.6554,115.6556,125.2266,8,5.5326,2,9.5703,0,1,1,1,1,"IMAGES_EXP_mp4_40/FIXES/FIX-NEUTRE-mp4/image9.mp4","DISTRACTEURS-40/DIST.ANIMÉES-20/10.NEUTRES/Dist.animee.neutre3.mp4","DISTRACTEURS-40/DIST.FIXES-20/10.NÉGATIFS/Dist.fix.negatif3.mp4",NA,NA,"",NA,NA,NA,NA,"",NA,NA,NA,NA,NA,NA,NA,NA,NA,NA,"",NA,NA,NA,NA,NA,NA,NA,"Fixed"
"43",NA,NA,"",NA,NA,"524648",1,"2025-02-25_20h07.15.941","Emotion.Memoire.2024","2024.1.5","MacIntel",20,125.2268,135.2324,135.2326,147.4358,1,6.3203,8,12.2025,0,2,2,2,1,"IMAGES_EXP_mp4_40/FIXES/FIX-NEGATIF-mp4/Image3.mp4","IMAGES_EXP_mp4_40/ANIMEES/10- ANIMEES --NEGATIVES /Video2.mp4","DISTRACTEURS-40/DIST.FIXES-20/10.NÉGATIFS/Dist.fix.negatif5.mp4",NA,NA,"",NA,NA,NA,NA,"",NA,NA,NA,NA,NA,NA,NA,NA,NA,NA,"",NA,NA,NA,NA,NA,NA,NA,"Fixed"
"44",NA,NA,"",NA,NA,"524648",1,"2025-02-25_20h07.15.941","Emotion.Memoire.2024","2024.1.5","MacIntel",20,147.4369,157.4255,157.4256,164.2054,5,4.296,8,6.7789,0,3,3,3,1,"IMAGES_EXP_mp4_40/FIXES/FIX-NEGATIF-mp4/Image4.mp4","IMAGES_EXP_mp4_40/FIXES/FIX-NEUTRE-mp4/image6.mp4","",NA,NA,"",NA,NA,NA,NA,"",NA,NA,NA,NA,NA,NA,NA,NA,NA,NA,"",NA,NA,NA,NA,NA,NA,NA,"Fixed"
"45",NA,NA,"",NA,NA,"524648",1,"2025-02-25_20h07.15.941","Emotion.Memoire.2024","2024.1.5","MacIntel",20,164.2056,174.2154,174.2155,179.1391,3,1.6049,7,4.9227,0,4,4,4,1,"IMAGES_EXP_mp4_40/FIXES/FIX-NEGATIF-mp4/Image10.mp4","IMAGES_EXP_mp4_40/FIXES/FIX-NEUTRE-mp4/image2.mp4","",NA,NA,"",NA,NA,NA,NA,"",NA,NA,NA,NA,NA,NA,NA,NA,NA,NA,"",NA,NA,NA,NA,NA,NA,NA,"Fixed"
"46",NA,NA,"",NA,NA,"524648",1,"2025-02-25_20h07.15.941","Emotion.Memoire.2024","2024.1.5","MacIntel",20,179.1394,189.1475,189.1477,200.019,7,5.7062,2,10.8707,0,5,5,5,1,"IMAGES_EXP_mp4_40/ANIMEES/11-ANIMEES --- NEUTRES /video10.mp4","DISTRACTEURS-40/DIST.FIXES-20/10.NEUTRES /Dist.fix.neutre7.mp4","",NA,NA,"",NA,NA,NA,NA,"",NA,NA,NA,NA,NA,NA,NA,NA,NA,NA,"",NA,NA,NA,NA,NA,NA,NA,"Animated"
"47",NA,NA,"",NA,NA,"524648",1,"2025-02-25_20h07.15.941","Emotion.Memoire.2024","2024.1.5","MacIntel",20,200.0192,210.0289,210.0291,215.3738,1,2.5541,9,5.3439,0,6,6,6,1,"IMAGES_EXP_mp4_40/ANIMEES/10- ANIMEES --NEGATIVES /Video4.mp4","DISTRACTEURS-40/DIST.ANIMÉES-20/10.NÉGATIFS/Dist.animee.negatif4.mp4","",NA,NA,"",NA,NA,NA,NA,"",NA,NA,NA,NA,NA,NA,NA,NA,NA,NA,"",NA,NA,NA,NA,NA,NA,NA,"Animated"
"48",NA,NA,"",NA,NA,"524648",1,"2025-02-25_20h07.15.941","Emotion.Memoire.2024","2024.1.5","MacIntel",20,215.374,225.3722,225.3724,232.4783,8,3.5152,2,7.1052,0,7,7,7,1,"IMAGES_EXP_mp4_40/FIXES/FIX-NEUTRE-mp4/image10.mp4","IMAGES_EXP_mp4_40/FIXES/FIX-NEGATIF-mp4/Image2.mp4","",NA,NA,"",NA,NA,NA,NA,"",NA,NA,NA,NA,NA,NA,NA,NA,NA,NA,"",NA,NA,NA,NA,NA,NA,NA,"Fixed"
"49",NA,NA,"",NA,NA,"524648",1,"2025-02-25_20h07.15.941","Emotion.Memoire.2024","2024.1.5","MacIntel",20,232.4785,242.4927,242.493,248.9038,2,4.487,8,6.4102,0,8,8,8,1,"IMAGES_EXP_mp4_40/ANIMEES/10- ANIMEES --NEGATIVES /Video1.mp4","IMAGES_EXP_mp4_40/FIXES/FIX-NEGATIF-mp4/Image9.mp4","",NA,NA,"",NA,NA,NA,NA,"",NA,NA,NA,NA,NA,NA,NA,NA,NA,NA,"",NA,NA,NA,NA,NA,NA,NA,"Animated"
"50",NA,NA,"",NA,NA,"524648",1,"2025-02-25_20h07.15.941","Emotion.Memoire.2024","2024.1.5","MacIntel",20,248.904,258.903,258.9032,265.2932,5,4.4155,8,6.3893,0,9,9,9,1,"IMAGES_EXP_mp4_40/FIXES/FIX-NEUTRE-mp4/image4.mp4","DISTRACTEURS-40/DIST.FIXES-20/10.NEUTRES /Dist.fix.neutre8.mp4","",NA,NA,"",NA,NA,NA,NA,"",NA,NA,NA,NA,NA,NA,NA,NA,NA,NA,"",NA,NA,NA,NA,NA,NA,NA,"Fixed"
"51",NA,NA,"",NA,NA,"524648",1,"2025-02-25_20h07.15.941","Emotion.Memoire.2024","2024.1.5","MacIntel",20,265.2935,275.2841,275.2842,280.5503,8,2.3501,3,5.2653,0,10,10,10,1,"IMAGES_EXP_mp4_40/ANIMEES/11-ANIMEES --- NEUTRES /video6.mp4","DISTRACTEURS-40/DIST.ANIMÉES-20/10.NÉGATIFS/Dist.animee.negatif8.mp4","",NA,NA,"",NA,NA,NA,NA,"",NA,NA,NA,NA,NA,NA,NA,NA,NA,NA,"",NA,NA,NA,NA,NA,NA,NA,"Animated"
"52",NA,NA,"",NA,NA,"524648",1,"2025-02-25_20h07.15.941","Emotion.Memoire.2024","2024.1.5","MacIntel",20,280.5504,290.5489,290.5491,296.0824,7,2.2408,2,5.5325,0,11,11,11,1,"IMAGES_EXP_mp4_40/ANIMEES/11-ANIMEES --- NEUTRES /video9.mp4","IMAGES_EXP_mp4_40/ANIMEES/11-ANIMEES --- NEUTRES /video8.mp4","",NA,NA,"",NA,NA,NA,NA,"",NA,NA,NA,NA,NA,NA,NA,NA,NA,NA,"",NA,NA,NA,NA,NA,NA,NA,"Animated"
"53",NA,NA,"",NA,NA,"524648",1,"2025-02-25_20h07.15.941","Emotion.Memoire.2024","2024.1.5","MacIntel",20,296.0826,306.0894,306.0896,310.383,8,2.2329,4,4.2928,0,12,12,12,1,"IMAGES_EXP_mp4_40/FIXES/FIX-NEUTRE-mp4/image8.mp4","IMAGES_EXP_mp4_40/ANIMEES/10- ANIMEES --NEGATIVES /Video8.mp4","",NA,NA,"",NA,NA,NA,NA,"",NA,NA,NA,NA,NA,NA,NA,NA,NA,NA,"",NA,NA,NA,NA,NA,NA,NA,"Fixed"
"54",NA,NA,"",NA,NA,"524648",1,"2025-02-25_20h07.15.941","Emotion.Memoire.2024","2024.1.5","MacIntel",20,310.3831,320.3846,320.385,327.3218,7,4.7698,8,6.9358,0,13,13,13,1,"IMAGES_EXP_mp4_40/ANIMEES/11-ANIMEES --- NEUTRES /video5.mp4","DISTRACTEURS-40/DIST.FIXES-20/10.NÉGATIFS/Dist.fix.negatif8.mp4","",NA,NA,"",NA,NA,NA,NA,"",NA,NA,NA,NA,NA,NA,NA,NA,NA,NA,"",NA,NA,NA,NA,NA,NA,NA,"Animated"
"55",NA,NA,"",NA,NA,"524648",1,"2025-02-25_20h07.15.941","Emotion.Memoire.2024","2024.1.5","MacIntel",20,327.322,337.3168,337.3169,347.3538,8,5.101,3,10.0344,0,14,14,14,1,"IMAGES_EXP_mp4_40/ANIMEES/11-ANIMEES --- NEUTRES /video1.mp4","DISTRACTEURS-40/DIST.FIXES-20/10.NEUTRES /Dist.fix.neutre2.mp4","",NA,NA,"",NA,NA,NA,NA,"",NA,NA,NA,NA,NA,NA,NA,NA,NA,NA,"",NA,NA,NA,NA,NA,NA,NA,"Animated"
"56",NA,NA,"",NA,NA,"524648",1,"2025-02-25_20h07.15.941","Emotion.Memoire.2024","2024.1.5","MacIntel",20,347.354,356.7869,356.7869,366.2843,3,3.8683,8,9.4967,0,15,15,15,1,"IMAGES_EXP_mp4_40/ANIMEES/10- ANIMEES --NEGATIVES /Video9.mp4","DISTRACTEURS-40/DIST.ANIMÉES-20/10.NEUTRES/Dist.animee.neutre10.mp4","",NA,NA,"",NA,NA,NA,NA,"",NA,NA,NA,NA,NA,NA,NA,NA,NA,NA,"",NA,NA,NA,NA,NA,NA,NA,"Animated"
"57",NA,NA,"",NA,NA,"524648",1,"2025-02-25_20h07.15.941","Emotion.Memoire.2024","2024.1.5","MacIntel",20,366.2846,375.2202,375.2203,381.3526,1,3.4635,9,6.1317,0,16,16,16,1,"IMAGES_EXP_mp4_40/ANIMEES/10- ANIMEES --NEGATIVES /Video8.mp4","DISTRACTEURS-40/DIST.FIXES-20/10.NEUTRES /Dist.fix.neutre5.mp4","",NA,NA,"",NA,NA,NA,NA,"",NA,NA,NA,NA,NA,NA,NA,NA,NA,NA,"",NA,NA,NA,NA,NA,NA,NA,"Animated"
"58",NA,NA,"",NA,NA,"524648",1,"2025-02-25_20h07.15.941","Emotion.Memoire.2024","2024.1.5","MacIntel",20,381.3528,391.3545,391.3546,394.755,1,2.0064,7,3.3998,0,17,17,17,1,"IMAGES_EXP_mp4_40/FIXES/FIX-NEGATIF-mp4/Image5.mp4","DISTRACTEURS-40/DIST.ANIMÉES-20/10.NEUTRES/Dist.animee.neutre1.mp4","",NA,NA,"",NA,NA,NA,NA,"",NA,NA,NA,NA,NA,NA,NA,NA,NA,NA,"",NA,NA,NA,NA,NA,NA,NA,"Fixed"
"59",NA,NA,"",NA,NA,"524648",1,"2025-02-25_20h07.15.941","Emotion.Memoire.2024","2024.1.5","MacIntel",20,394.7553,404.7648,404.7648,412.1236,7,2.9176,2,7.3581,0,18,18,18,1,"IMAGES_EXP_mp4_40/ANIMEES/11-ANIMEES --- NEUTRES /video2.mp4","IMAGES_EXP_mp4_40/FIXES/FIX-NEUTRE-mp4/image5.mp4","",NA,NA,"",NA,NA,NA,NA,"",NA,NA,NA,NA,NA,NA,NA,NA,NA,NA,"",NA,NA,NA,NA,NA,NA,NA,"Animated"
"60",NA,NA,"",NA,NA,"524648",1,"2025-02-25_20h07.15.941","Emotion.Memoire.2024","2024.1.5","MacIntel",20,412.1238,422.1161,422.1162,427.045,1,3.0684,6,4.9281,0,19,19,19,1,"IMAGES_EXP_mp4_40/ANIMEES/10- ANIMEES --NEGATIVES /Video7.mp4","IMAGES_EXP_mp4_40/FIXES/FIX-NEUTRE-mp4/image7.mp4","",NA,NA,"",NA,NA,NA,NA,"",NA,NA,NA,NA,NA,NA,NA,NA,NA,NA,"",NA,NA,NA,NA,NA,NA,NA,"Animated"
"61",NA,NA,"",NA,NA,"524648",1,"2025-02-25_20h07.15.941","Emotion.Memoire.2024","2024.1.5","MacIntel",20,427.0454,437.0326,437.0328,442.519,9,2.9809,1,5.4826,0,20,20,20,1,"IMAGES_EXP_mp4_40/FIXES/FIX-NEUTRE-mp4/image5.mp4","IMAGES_EXP_mp4_40/ANIMEES/10- ANIMEES --NEGATIVES /Video10.mp4","",NA,NA,"",NA,NA,NA,NA,"",NA,NA,NA,NA,NA,NA,NA,NA,NA,NA,"",NA,NA,NA,NA,NA,NA,NA,"Fixed"
"62",NA,NA,"",NA,NA,"524648",1,"2025-02-25_20h07.15.941","Emotion.Memoire.2024","2024.1.5","MacIntel",20,442.5192,452.5166,452.5168,460.7675,8,4.2385,2,8.2501,0,21,21,21,1,"IMAGES_EXP_mp4_40/ANIMEES/11-ANIMEES --- NEUTRES /video3.mp4","IMAGES_EXP_mp4_40/ANIMEES/10- ANIMEES --NEGATIVES /Video4.mp4","",NA,NA,"",NA,NA,NA,NA,"",NA,NA,NA,NA,NA,NA,NA,NA,NA,NA,"",NA,NA,NA,NA,NA,NA,NA,"Animated"
"63",NA,NA,"",NA,NA,"524648",1,"2025-02-25_20h07.15.941","Emotion.Memoire.2024","2024.1.5","MacIntel",20,460.7677,470.756,470.7563,478.5575,3,4.5433,8,7.8006,0,22,22,22,1,"IMAGES_EXP_mp4_40/ANIMEES/10- ANIMEES --NEGATIVES /Video5.mp4","IMAGES_EXP_mp4_40/ANIMEES/10- ANIMEES --NEGATIVES /Video5.mp4","",NA,NA,"",NA,NA,NA,NA,"",NA,NA,NA,NA,NA,NA,NA,NA,NA,NA,"",NA,NA,NA,NA,NA,NA,NA,"Animated"
"64",NA,NA,"",NA,NA,"524648",1,"2025-02-25_20h07.15.941","Emotion.Memoire.2024","2024.1.5","MacIntel",20,478.5577,488.5673,488.5675,493.1972,7,3.4827,7,4.6286,0,23,23,23,1,"IMAGES_EXP_mp4_40/ANIMEES/11-ANIMEES --- NEUTRES /video7.mp4","IMAGES_EXP_mp4_40/ANIMEES/11-ANIMEES --- NEUTRES /video6.mp4","",NA,NA,"",NA,NA,NA,NA,"",NA,NA,NA,NA,NA,NA,NA,NA,NA,NA,"",NA,NA,NA,NA,NA,NA,NA,"Animated"
"65",NA,NA,"",NA,NA,"524648",1,"2025-02-25_20h07.15.941","Emotion.Memoire.2024","2024.1.5","MacIntel",20,493.1974,503.1851,503.1853,510.87,2,5.2622,4,7.6841,0,24,24,24,1,"IMAGES_EXP_mp4_40/FIXES/FIX-NEGATIF-mp4/Image8.mp4","IMAGES_EXP_mp4_40/ANIMEES/11-ANIMEES --- NEUTRES /video5.mp4","",NA,NA,"",NA,NA,NA,NA,"",NA,NA,NA,NA,NA,NA,NA,NA,NA,NA,"",NA,NA,NA,NA,NA,NA,NA,"Fixed"
"66",NA,NA,"",NA,NA,"524648",1,"2025-02-25_20h07.15.941","Emotion.Memoire.2024","2024.1.5","MacIntel",20,510.8702,520.8664,520.8665,525.5523,1,2.6558,9,4.6851,0,25,25,25,1,"IMAGES_EXP_mp4_40/FIXES/FIX-NEGATIF-mp4/Image2.mp4","DISTRACTEURS-40/DIST.ANIMÉES-20/10.NÉGATIFS/Dist.animee.negatif5.mp4","",NA,NA,"",NA,NA,NA,NA,"",NA,NA,NA,NA,NA,NA,NA,NA,NA,NA,"",NA,NA,NA,NA,NA,NA,NA,"Fixed"
"67",NA,NA,"",NA,NA,"524648",1,"2025-02-25_20h07.15.941","Emotion.Memoire.2024","2024.1.5","MacIntel",20,525.5525,535.5403,535.5405,541.0631,6,3.0761,1,5.5221,0,26,26,26,1,"IMAGES_EXP_mp4_40/FIXES/FIX-NEUTRE-mp4/image7.mp4","DISTRACTEURS-40/DIST.ANIMÉES-20/10.NEUTRES/Dist.animee.neutre4.mp4","",NA,NA,"",NA,NA,NA,NA,"",NA,NA,NA,NA,NA,NA,NA,NA,NA,NA,"",NA,NA,NA,NA,NA,NA,NA,"Fixed"
"68",NA,NA,"",NA,NA,"524648",1,"2025-02-25_20h07.15.941","Emotion.Memoire.2024","2024.1.5","MacIntel",20,541.0633,551.0508,551.051,558.5751,9,2.8572,4,7.5233,0,27,27,27,1,"IMAGES_EXP_mp4_40/ANIMEES/11-ANIMEES --- NEUTRES /video4.mp4","DISTRACTEURS-40/DIST.FIXES-20/10.NEUTRES /Dist.fix.neutre10.mp4","",NA,NA,"",NA,NA,NA,NA,"",NA,NA,NA,NA,NA,NA,NA,NA,NA,NA,"",NA,NA,NA,NA,NA,NA,NA,"Animated"
"69",NA,NA,"",NA,NA,"524648",1,"2025-02-25_20h07.15.941","Emotion.Memoire.2024","2024.1.5","MacIntel",20,558.5755,568.5713,568.5716,573.6361,1,2.8899,6,5.0635,0,28,28,28,1,"IMAGES_EXP_mp4_40/FIXES/FIX-NEGATIF-mp4/Image1.mp4","IMAGES_EXP_mp4_40/FIXES/FIX-NEGATIF-mp4/Image3.mp4","",NA,NA,"",NA,NA,NA,NA,"",NA,NA,NA,NA,NA,NA,NA,NA,NA,NA,"",NA,NA,NA,NA,NA,NA,NA,"Fixed"
"70",NA,NA,"",NA,NA,"524648",1,"2025-02-25_20h07.15.941","Emotion.Memoire.2024","2024.1.5","MacIntel",20,573.6365,583.6522,583.6523,589.0037,1,2.4974,5,5.3504,0,29,29,29,1,"IMAGES_EXP_mp4_40/ANIMEES/10- ANIMEES --NEGATIVES /Video10.mp4","DISTRACTEURS-40/DIST.FIXES-20/10.NÉGATIFS/Dist.fix.negatif6.mp4","",NA,NA,"",NA,NA,NA,NA,"",NA,NA,NA,NA,NA,NA,NA,NA,NA,NA,"",NA,NA,NA,NA,NA,NA,NA,"Animated"
"71",NA,NA,"",NA,NA,"524648",1,"2025-02-25_20h07.15.941","Emotion.Memoire.2024","2024.1.5","MacIntel",20,589.0039,599.0191,599.0192,603.7177,7,3.0359,6,4.6969,0,30,30,30,1,"IMAGES_EXP_mp4_40/ANIMEES/11-ANIMEES --- NEUTRES /video8.mp4","IMAGES_EXP_mp4_40/ANIMEES/11-ANIMEES --- NEUTRES /video1.mp4","",NA,NA,"",NA,NA,NA,NA,"",NA,NA,NA,NA,NA,NA,NA,NA,NA,NA,"",NA,NA,NA,NA,NA,NA,NA,"Animated"
"72",NA,NA,"",NA,NA,"524648",1,"2025-02-25_20h07.15.941","Emotion.Memoire.2024","2024.1.5","MacIntel",20,603.7182,613.722,613.7222,617.3229,8,1.6769,5,3.5987,0,31,31,31,1,"IMAGES_EXP_mp4_40/FIXES/FIX-NEUTRE-mp4/image6.mp4","IMAGES_EXP_mp4_40/FIXES/FIX-NEUTRE-mp4/image9.mp4","",NA,NA,"",NA,NA,NA,NA,"",NA,NA,NA,NA,NA,NA,NA,NA,NA,NA,"",NA,NA,NA,NA,NA,NA,NA,"Fixed"
"73",NA,NA,"",NA,NA,"524648",1,"2025-02-25_20h07.15.941","Emotion.Memoire.2024","2024.1.5","MacIntel",20,617.3231,627.3219,627.3222,632.5351,1,3.5179,9,5.2119,0,32,32,32,1,"IMAGES_EXP_mp4_40/ANIMEES/10- ANIMEES --NEGATIVES /Video2.mp4","IMAGES_EXP_mp4_40/ANIMEES/10- ANIMEES --NEGATIVES /Video6.mp4","",NA,NA,"",NA,NA,NA,NA,"",NA,NA,NA,NA,NA,NA,NA,NA,NA,NA,"",NA,NA,NA,NA,NA,NA,NA,"Animated"
"74",NA,NA,"",NA,NA,"524648",1,"2025-02-25_20h07.15.941","Emotion.Memoire.2024","2024.1.5","MacIntel",20,632.5355,642.5127,642.5129,646.5379,1,2.7064,5,4.0244,0,33,33,33,1,"IMAGES_EXP_mp4_40/ANIMEES/10- ANIMEES --NEGATIVES /Video3.mp4","IMAGES_EXP_mp4_40/ANIMEES/11-ANIMEES --- NEUTRES /video3.mp4","",NA,NA,"",NA,NA,NA,NA,"",NA,NA,NA,NA,NA,NA,NA,NA,NA,NA,"",NA,NA,NA,NA,NA,NA,NA,"Animated"
"75",NA,NA,"",NA,NA,"524648",1,"2025-02-25_20h07.15.941","Emotion.Memoire.2024","2024.1.5","MacIntel",20,646.5382,656.5281,656.5283,663.5474,7,2.321,4,7.0181,0,34,34,34,1,"IMAGES_EXP_mp4_40/FIXES/FIX-NEUTRE-mp4/image2.mp4","DISTRACTEURS-40/DIST.ANIMÉES-20/10.NÉGATIFS/Dist.animee.negatif7.mp4","",NA,NA,"",NA,NA,NA,NA,"",NA,NA,NA,NA,NA,NA,NA,NA,NA,NA,"",NA,NA,NA,NA,NA,NA,NA,"Fixed"
"76",NA,NA,"",NA,NA,"524648",1,"2025-02-25_20h07.15.941","Emotion.Memoire.2024","2024.1.5","MacIntel",20,663.5475,673.5463,673.5465,679.6018,8,3.6754,1,6.0547,0,35,35,35,1,"IMAGES_EXP_mp4_40/FIXES/FIX-NEUTRE-mp4/image3.mp4","IMAGES_EXP_mp4_40/ANIMEES/11-ANIMEES --- NEUTRES /video9.mp4","",NA,NA,"",NA,NA,NA,NA,"",NA,NA,NA,NA,NA,NA,NA,NA,NA,NA,"",NA,NA,NA,NA,NA,NA,NA,"Fixed"
"77",NA,NA,"",NA,NA,"524648",1,"2025-02-25_20h07.15.941","Emotion.Memoire.2024","2024.1.5","MacIntel",20,679.602,689.5807,689.5811,699.3825,3,3.7515,3,9.8004,0,36,36,36,1,"IMAGES_EXP_mp4_40/FIXES/FIX-NEGATIF-mp4/Image9.mp4","DISTRACTEURS-40/DIST.ANIMÉES-20/10.NEUTRES/Dist.animee.neutre6.mp4","",NA,NA,"",NA,NA,NA,NA,"",NA,NA,NA,NA,NA,NA,NA,NA,NA,NA,"",NA,NA,NA,NA,NA,NA,NA,"Fixed"
"78",NA,NA,"",NA,NA,"524648",1,"2025-02-25_20h07.15.941","Emotion.Memoire.2024","2024.1.5","MacIntel",20,699.3829,709.3967,709.3969,717.1148,3,4.7743,3,7.7171,0,37,37,37,1,"IMAGES_EXP_mp4_40/FIXES/FIX-NEGATIF-mp4/Image7.mp4","IMAGES_EXP_mp4_40/FIXES/FIX-NEGATIF-mp4/Image8.mp4","",NA,NA,"",NA,NA,NA,NA,"",NA,NA,NA,NA,NA,NA,NA,NA,NA,NA,"",NA,NA,NA,NA,NA,NA,NA,"Fixed"
"79",NA,NA,"",NA,NA,"524648",1,"2025-02-25_20h07.15.941","Emotion.Memoire.2024","2024.1.5","MacIntel",20,717.1151,727.0909,727.0911,734.7991,1,5.4558,9,7.7071,0,38,38,38,1,"IMAGES_EXP_mp4_40/ANIMEES/10- ANIMEES --NEGATIVES /Video6.mp4","IMAGES_EXP_mp4_40/FIXES/FIX-NEUTRE-mp4/image8.mp4","",NA,NA,"",NA,NA,NA,NA,"",NA,NA,NA,NA,NA,NA,NA,NA,NA,NA,"",NA,NA,NA,NA,NA,NA,NA,"Animated"
"80",NA,NA,"",NA,NA,"524648",1,"2025-02-25_20h07.15.941","Emotion.Memoire.2024","2024.1.5","MacIntel",20,734.7993,744.8111,744.8112,750.7798,7,3.3799,2,5.9678,0,39,39,39,1,"IMAGES_EXP_mp4_40/FIXES/FIX-NEUTRE-mp4/image1.mp4","IMAGES_EXP_mp4_40/ANIMEES/11-ANIMEES --- NEUTRES /video7.mp4","",NA,NA,"",NA,NA,NA,NA,"",NA,NA,NA,NA,NA,NA,NA,NA,NA,NA,"",NA,NA,NA,NA,NA,NA,NA,"Fixed"
"81",NA,NA,"",NA,NA,"842187",1,"2025-03-31_11h38.47.672","Emotion.Memoire.2024","2024.1.5","MacIntel",19.60784314,53.418,63.426,63.431,87.66,3,11.515,5,24.227,0,0,0,0,1,"IMAGES_EXP_mp4_40/FIXES/FIX-NEGATIF-mp4/Image6.mp4","DISTRACTEURS-40/DIST.ANIMÉES-20/10.NÉGATIFS/Dist.animee.negatif10.mp4","IMAGES_EXP_mp4_40/ANIMEES/10- ANIMEES --NEGATIVES /Video1.mp4",NA,NA,"",NA,NA,NA,NA,"",NA,NA,NA,NA,NA,NA,NA,NA,NA,NA,"",NA,NA,NA,NA,NA,NA,NA,"Fixed"
"82",NA,NA,"",NA,NA,"842187",1,"2025-03-31_11h38.47.672","Emotion.Memoire.2024","2024.1.5","MacIntel",19.60784314,87.665,97.659,97.66,116.525,7,3.953,3,18.855,0,1,1,1,1,"IMAGES_EXP_mp4_40/FIXES/FIX-NEUTRE-mp4/image9.mp4","DISTRACTEURS-40/DIST.ANIMÉES-20/10.NEUTRES/Dist.animee.neutre3.mp4","DISTRACTEURS-40/DIST.FIXES-20/10.NÉGATIFS/Dist.fix.negatif3.mp4",NA,NA,"",NA,NA,NA,NA,"",NA,NA,NA,NA,NA,NA,NA,NA,NA,NA,"",NA,NA,NA,NA,NA,NA,NA,"Fixed"
"83",NA,NA,"",NA,NA,"842187",1,"2025-03-31_11h38.47.672","Emotion.Memoire.2024","2024.1.5","MacIntel",19.60784314,116.526,126.525,126.526,137.226,2,5.707,5,10.698,0,2,2,2,1,"IMAGES_EXP_mp4_40/FIXES/FIX-NEGATIF-mp4/Image3.mp4","IMAGES_EXP_mp4_40/ANIMEES/10- ANIMEES --NEGATIVES /Video2.mp4","DISTRACTEURS-40/DIST.FIXES-20/10.NÉGATIFS/Dist.fix.negatif5.mp4",NA,NA,"",NA,NA,NA,NA,"",NA,NA,NA,NA,NA,NA,NA,NA,NA,NA,"",NA,NA,NA,NA,NA,NA,NA,"Fixed"
"84",NA,NA,"",NA,NA,"842187",1,"2025-03-31_11h38.47.672","Emotion.Memoire.2024","2024.1.5","MacIntel",19.60784314,137.227,147.225,147.226,153.892,3,4.842,6,6.651,0,3,3,3,1,"IMAGES_EXP_mp4_40/FIXES/FIX-NEGATIF-mp4/Image4.mp4","IMAGES_EXP_mp4_40/FIXES/FIX-NEUTRE-mp4/image6.mp4","",NA,NA,"",NA,NA,NA,NA,"",NA,NA,NA,NA,NA,NA,NA,NA,NA,NA,"",NA,NA,NA,NA,NA,NA,NA,"Fixed"
"85",NA,NA,"",NA,NA,"842187",1,"2025-03-31_11h38.47.672","Emotion.Memoire.2024","2024.1.5","MacIntel",19.60784314,153.892,163.892,163.893,172.525,2,1.685,6,8.62,0,4,4,4,1,"IMAGES_EXP_mp4_40/FIXES/FIX-NEGATIF-mp4/Image10.mp4","IMAGES_EXP_mp4_40/FIXES/FIX-NEUTRE-mp4/image2.mp4","",NA,NA,"",NA,NA,NA,NA,"",NA,NA,NA,NA,NA,NA,NA,NA,NA,NA,"",NA,NA,NA,NA,NA,NA,NA,"Fixed"
"86",NA,NA,"",NA,NA,"842187",1,"2025-03-31_11h38.47.672","Emotion.Memoire.2024","2024.1.5","MacIntel",19.60784314,172.526,182.526,182.526,189.758,7,4.236,2,7.204,0,5,5,5,1,"IMAGES_EXP_mp4_40/ANIMEES/11-ANIMEES --- NEUTRES /video10.mp4","DISTRACTEURS-40/DIST.FIXES-20/10.NEUTRES /Dist.fix.neutre7.mp4","",NA,NA,"",NA,NA,NA,NA,"",NA,NA,NA,NA,NA,NA,NA,NA,NA,NA,"",NA,NA,NA,NA,NA,NA,NA,"Animated"
"87",NA,NA,"",NA,NA,"842187",1,"2025-03-31_11h38.47.672","Emotion.Memoire.2024","2024.1.5","MacIntel",19.60784314,189.759,199.758,199.759,211.091,3,7.437,3,11.307,0,6,6,6,1,"IMAGES_EXP_mp4_40/ANIMEES/10- ANIMEES --NEGATIVES /Video4.mp4","DISTRACTEURS-40/DIST.ANIMÉES-20/10.NÉGATIFS/Dist.animee.negatif4.mp4","",NA,NA,"",NA,NA,NA,NA,"",NA,NA,NA,NA,NA,NA,NA,NA,NA,NA,"",NA,NA,NA,NA,NA,NA,NA,"Animated"
"88",NA,NA,"",NA,NA,"842187",1,"2025-03-31_11h38.47.672","Emotion.Memoire.2024","2024.1.5","MacIntel",19.60784314,211.092,221.091,221.092,233.825,6,9.355,2,12.728,0,7,7,7,1,"IMAGES_EXP_mp4_40/FIXES/FIX-NEUTRE-mp4/image10.mp4","IMAGES_EXP_mp4_40/FIXES/FIX-NEGATIF-mp4/Image2.mp4","",NA,NA,"",NA,NA,NA,NA,"",NA,NA,NA,NA,NA,NA,NA,NA,NA,NA,"",NA,NA,NA,NA,NA,NA,NA,"Fixed"
"89",NA,NA,"",NA,NA,"842187",1,"2025-03-31_11h38.47.672","Emotion.Memoire.2024","2024.1.5","MacIntel",19.60784314,233.825,243.725,243.725,247.724,2,1.603,6,3.997,0,8,8,8,1,"IMAGES_EXP_mp4_40/ANIMEES/10- ANIMEES --NEGATIVES /Video1.mp4","IMAGES_EXP_mp4_40/FIXES/FIX-NEGATIF-mp4/Image9.mp4","",NA,NA,"",NA,NA,NA,NA,"",NA,NA,NA,NA,NA,NA,NA,NA,NA,NA,"",NA,NA,NA,NA,NA,NA,NA,"Animated"
"90",NA,NA,"",NA,NA,"842187",1,"2025-03-31_11h38.47.672","Emotion.Memoire.2024","2024.1.5","MacIntel",19.60784314,247.725,257.724,257.725,261.891,2,1.754,7,4.146,0,9,9,9,1,"IMAGES_EXP_mp4_40/FIXES/FIX-NEUTRE-mp4/image4.mp4","DISTRACTEURS-40/DIST.FIXES-20/10.NEUTRES /Dist.fix.neutre8.mp4","",NA,NA,"",NA,NA,NA,NA,"",NA,NA,NA,NA,NA,NA,NA,NA,NA,NA,"",NA,NA,NA,NA,NA,NA,NA,"Fixed"
"91",NA,NA,"",NA,NA,"842187",1,"2025-03-31_11h38.47.672","Emotion.Memoire.2024","2024.1.5","MacIntel",19.60784314,261.892,271.891,271.891,277.791,7,2.391,2,5.869,0,10,10,10,1,"IMAGES_EXP_mp4_40/ANIMEES/11-ANIMEES --- NEUTRES /video6.mp4","DISTRACTEURS-40/DIST.ANIMÉES-20/10.NÉGATIFS/Dist.animee.negatif8.mp4","",NA,NA,"",NA,NA,NA,NA,"",NA,NA,NA,NA,NA,NA,NA,NA,NA,NA,"",NA,NA,NA,NA,NA,NA,NA,"Animated"
"92",NA,NA,"",NA,NA,"842187",1,"2025-03-31_11h38.47.672","Emotion.Memoire.2024","2024.1.5","MacIntel",19.60784314,277.792,287.791,287.791,299.124,2,6.195,5,11.319,0,11,11,11,1,"IMAGES_EXP_mp4_40/ANIMEES/11-ANIMEES --- NEUTRES /video9.mp4","IMAGES_EXP_mp4_40/ANIMEES/11-ANIMEES --- NEUTRES /video8.mp4","",NA,NA,"",NA,NA,NA,NA,"",NA,NA,NA,NA,NA,NA,NA,NA,NA,NA,"",NA,NA,NA,NA,NA,NA,NA,"Animated"
"93",NA,NA,"",NA,NA,"842187",1,"2025-03-31_11h38.47.672","Emotion.Memoire.2024","2024.1.5","MacIntel",19.60784314,299.125,309.124,309.125,313.458,7,2.603,2,4.307,0,12,12,12,1,"IMAGES_EXP_mp4_40/FIXES/FIX-NEUTRE-mp4/image8.mp4","IMAGES_EXP_mp4_40/ANIMEES/10- ANIMEES --NEGATIVES /Video8.mp4","",NA,NA,"",NA,NA,NA,NA,"",NA,NA,NA,NA,NA,NA,NA,NA,NA,NA,"",NA,NA,NA,NA,NA,NA,NA,"Fixed"
"94",NA,NA,"",NA,NA,"842187",1,"2025-03-31_11h38.47.672","Emotion.Memoire.2024","2024.1.5","MacIntel",19.60784314,313.458,323.457,323.459,329.924,7,4.87,5,6.442,0,13,13,13,1,"IMAGES_EXP_mp4_40/ANIMEES/11-ANIMEES --- NEUTRES /video5.mp4","DISTRACTEURS-40/DIST.FIXES-20/10.NÉGATIFS/Dist.fix.negatif8.mp4","",NA,NA,"",NA,NA,NA,NA,"",NA,NA,NA,NA,NA,NA,NA,NA,NA,NA,"",NA,NA,NA,NA,NA,NA,NA,"Animated"
"95",NA,NA,"",NA,NA,"842187",1,"2025-03-31_11h38.47.672","Emotion.Memoire.2024","2024.1.5","MacIntel",19.60784314,329.925,339.924,339.925,347.09,7,4.603,3,7.153,0,14,14,14,1,"IMAGES_EXP_mp4_40/ANIMEES/11-ANIMEES --- NEUTRES /video1.mp4","DISTRACTEURS-40/DIST.FIXES-20/10.NEUTRES /Dist.fix.neutre2.mp4","",NA,NA,"",NA,NA,NA,NA,"",NA,NA,NA,NA,NA,NA,NA,NA,NA,NA,"",NA,NA,NA,NA,NA,NA,NA,"Animated"
"96",NA,NA,"",NA,NA,"842187",1,"2025-03-31_11h38.47.672","Emotion.Memoire.2024","2024.1.5","MacIntel",19.60784314,347.091,356.325,356.325,361.39,2,2.493,4,5.042,0,15,15,15,1,"IMAGES_EXP_mp4_40/ANIMEES/10- ANIMEES --NEGATIVES /Video9.mp4","DISTRACTEURS-40/DIST.ANIMÉES-20/10.NEUTRES/Dist.animee.neutre10.mp4","",NA,NA,"",NA,NA,NA,NA,"",NA,NA,NA,NA,NA,NA,NA,NA,NA,NA,"",NA,NA,NA,NA,NA,NA,NA,"Animated"
"97",NA,NA,"",NA,NA,"842187",1,"2025-03-31_11h38.47.672","Emotion.Memoire.2024","2024.1.5","MacIntel",19.60784314,361.391,370.262,370.263,377.223,2,4.169,5,6.932,0,16,16,16,1,"IMAGES_EXP_mp4_40/ANIMEES/10- ANIMEES --NEGATIVES /Video8.mp4","DISTRACTEURS-40/DIST.FIXES-20/10.NEUTRES /Dist.fix.neutre5.mp4","",NA,NA,"",NA,NA,NA,NA,"",NA,NA,NA,NA,NA,NA,NA,NA,NA,NA,"",NA,NA,NA,NA,NA,NA,NA,"Animated"
"98",NA,NA,"",NA,NA,"842187",1,"2025-03-31_11h38.47.672","Emotion.Memoire.2024","2024.1.5","MacIntel",19.60784314,377.224,387.224,387.225,393.957,2,3.919,6,6.719,0,17,17,17,1,"IMAGES_EXP_mp4_40/FIXES/FIX-NEGATIF-mp4/Image5.mp4","DISTRACTEURS-40/DIST.ANIMÉES-20/10.NEUTRES/Dist.animee.neutre1.mp4","",NA,NA,"",NA,NA,NA,NA,"",NA,NA,NA,NA,NA,NA,NA,NA,NA,NA,"",NA,NA,NA,NA,NA,NA,NA,"Fixed"
"99",NA,NA,"",NA,NA,"842187",1,"2025-03-31_11h38.47.672","Emotion.Memoire.2024","2024.1.5","MacIntel",19.60784314,393.958,403.957,403.958,410.491,7,3.26,2,6.529,0,18,18,18,1,"IMAGES_EXP_mp4_40/ANIMEES/11-ANIMEES --- NEUTRES /video2.mp4","IMAGES_EXP_mp4_40/FIXES/FIX-NEUTRE-mp4/image5.mp4","",NA,NA,"",NA,NA,NA,NA,"",NA,NA,NA,NA,NA,NA,NA,NA,NA,NA,"",NA,NA,NA,NA,NA,NA,NA,"Animated"
"100",NA,NA,"",NA,NA,"842187",1,"2025-03-31_11h38.47.672","Emotion.Memoire.2024","2024.1.5","MacIntel",19.60784314,410.491,420.49,420.492,424.057,2,1.853,5,3.537,0,19,19,19,1,"IMAGES_EXP_mp4_40/ANIMEES/10- ANIMEES --NEGATIVES /Video7.mp4","IMAGES_EXP_mp4_40/FIXES/FIX-NEUTRE-mp4/image7.mp4","",NA,NA,"",NA,NA,NA,NA,"",NA,NA,NA,NA,NA,NA,NA,NA,NA,NA,"",NA,NA,NA,NA,NA,NA,NA,"Animated"
"101",NA,NA,"",NA,NA,"842187",1,"2025-03-31_11h38.47.672","Emotion.Memoire.2024","2024.1.5","MacIntel",19.60784314,424.057,448.337,448.337,464.224,7,14.049,2,15.88,0,20,20,20,1,"IMAGES_EXP_mp4_40/FIXES/FIX-NEUTRE-mp4/image5.mp4","IMAGES_EXP_mp4_40/ANIMEES/10- ANIMEES --NEGATIVES /Video10.mp4","",NA,NA,"",NA,NA,NA,NA,"",NA,NA,NA,NA,NA,NA,NA,NA,NA,NA,"",NA,NA,NA,NA,NA,NA,NA,"Fixed"
"102",NA,NA,"",NA,NA,"842187",1,"2025-03-31_11h38.47.672","Emotion.Memoire.2024","2024.1.5","MacIntel",19.60784314,464.225,474.224,474.225,478.49,7,2.452,3,4.261,0,21,21,21,1,"IMAGES_EXP_mp4_40/ANIMEES/11-ANIMEES --- NEUTRES /video3.mp4","IMAGES_EXP_mp4_40/ANIMEES/10- ANIMEES --NEGATIVES /Video4.mp4","",NA,NA,"",NA,NA,NA,NA,"",NA,NA,NA,NA,NA,NA,NA,NA,NA,NA,"",NA,NA,NA,NA,NA,NA,NA,"Animated"
"103",NA,NA,"",NA,NA,"842187",1,"2025-03-31_11h38.47.672","Emotion.Memoire.2024","2024.1.5","MacIntel",19.60784314,478.491,488.49,488.491,492.457,3,2.31,5,3.945,0,22,22,22,1,"IMAGES_EXP_mp4_40/ANIMEES/10- ANIMEES --NEGATIVES /Video5.mp4","IMAGES_EXP_mp4_40/ANIMEES/10- ANIMEES --NEGATIVES /Video5.mp4","",NA,NA,"",NA,NA,NA,NA,"",NA,NA,NA,NA,NA,NA,NA,NA,NA,NA,"",NA,NA,NA,NA,NA,NA,NA,"Animated"
"104",NA,NA,"",NA,NA,"842187",1,"2025-03-31_11h38.47.672","Emotion.Memoire.2024","2024.1.5","MacIntel",19.60784314,492.457,502.456,502.458,505.49,3,1.833,4,3.007,0,23,23,23,1,"IMAGES_EXP_mp4_40/ANIMEES/11-ANIMEES --- NEUTRES /video7.mp4","IMAGES_EXP_mp4_40/ANIMEES/11-ANIMEES --- NEUTRES /video6.mp4","",NA,NA,"",NA,NA,NA,NA,"",NA,NA,NA,NA,NA,NA,NA,NA,NA,NA,"",NA,NA,NA,NA,NA,NA,NA,"Animated"
"105",NA,NA,"",NA,NA,"842187",1,"2025-03-31_11h38.47.672","Emotion.Memoire.2024","2024.1.5","MacIntel",19.60784314,505.491,515.489,515.49,524.991,5,5.803,3,9.476,0,24,24,24,1,"IMAGES_EXP_mp4_40/FIXES/FIX-NEGATIF-mp4/Image8.mp4","IMAGES_EXP_mp4_40/ANIMEES/11-ANIMEES --- NEUTRES /video5.mp4","",NA,NA,"",NA,NA,NA,NA,"",NA,NA,NA,NA,NA,NA,NA,NA,NA,NA,"",NA,NA,NA,NA,NA,NA,NA,"Fixed"
"106",NA,NA,"",NA,NA,"842187",1,"2025-03-31_11h38.47.672","Emotion.Memoire.2024","2024.1.5","MacIntel",19.60784314,524.992,534.99,534.99,543.156,2,6.686,5,8.162,0,25,25,25,1,"IMAGES_EXP_mp4_40/FIXES/FIX-NEGATIF-mp4/Image2.mp4","DISTRACTEURS-40/DIST.ANIMÉES-20/10.NÉGATIFS/Dist.animee.negatif5.mp4","",NA,NA,"",NA,NA,NA,NA,"",NA,NA,NA,NA,NA,NA,NA,NA,NA,NA,"",NA,NA,NA,NA,NA,NA,NA,"Fixed"
"107",NA,NA,"",NA,NA,"842187",1,"2025-03-31_11h38.47.672","Emotion.Memoire.2024","2024.1.5","MacIntel",19.60784314,543.157,553.157,553.158,569.29,2,14.629,6,16.129,0,26,26,26,1,"IMAGES_EXP_mp4_40/FIXES/FIX-NEUTRE-mp4/image7.mp4","DISTRACTEURS-40/DIST.ANIMÉES-20/10.NEUTRES/Dist.animee.neutre4.mp4","",NA,NA,"",NA,NA,NA,NA,"",NA,NA,NA,NA,NA,NA,NA,NA,NA,NA,"",NA,NA,NA,NA,NA,NA,NA,"Fixed"
"108",NA,NA,"",NA,NA,"842187",1,"2025-03-31_11h38.47.672","Emotion.Memoire.2024","2024.1.5","MacIntel",19.60784314,569.29,579.29,579.291,582.623,8,1.52,2,3.306,0,27,27,27,1,"IMAGES_EXP_mp4_40/ANIMEES/11-ANIMEES --- NEUTRES /video4.mp4","DISTRACTEURS-40/DIST.FIXES-20/10.NEUTRES /Dist.fix.neutre10.mp4","",NA,NA,"",NA,NA,NA,NA,"",NA,NA,NA,NA,NA,NA,NA,NA,NA,NA,"",NA,NA,NA,NA,NA,NA,NA,"Animated"
"109",NA,NA,"",NA,NA,"842187",1,"2025-03-31_11h38.47.672","Emotion.Memoire.2024","2024.1.5","MacIntel",19.60784314,582.624,592.623,592.624,595.69,2,1.186,6,3.043,0,28,28,28,1,"IMAGES_EXP_mp4_40/FIXES/FIX-NEGATIF-mp4/Image1.mp4","IMAGES_EXP_mp4_40/FIXES/FIX-NEGATIF-mp4/Image3.mp4","",NA,NA,"",NA,NA,NA,NA,"",NA,NA,NA,NA,NA,NA,NA,NA,NA,NA,"",NA,NA,NA,NA,NA,NA,NA,"Fixed"
"110",NA,NA,"",NA,NA,"842187",1,"2025-03-31_11h38.47.672","Emotion.Memoire.2024","2024.1.5","MacIntel",19.60784314,595.69,605.689,605.69,609.856,2,2.122,6,4.151,0,29,29,29,1,"IMAGES_EXP_mp4_40/ANIMEES/10- ANIMEES --NEGATIVES /Video10.mp4","DISTRACTEURS-40/DIST.FIXES-20/10.NÉGATIFS/Dist.fix.negatif6.mp4","",NA,NA,"",NA,NA,NA,NA,"",NA,NA,NA,NA,NA,NA,NA,NA,NA,NA,"",NA,NA,NA,NA,NA,NA,NA,"Animated"
"111",NA,NA,"",NA,NA,"842187",1,"2025-03-31_11h38.47.672","Emotion.Memoire.2024","2024.1.5","MacIntel",19.60784314,609.857,619.856,619.858,625.556,7,3.69,3,5.673,0,30,30,30,1,"IMAGES_EXP_mp4_40/ANIMEES/11-ANIMEES --- NEUTRES /video8.mp4","IMAGES_EXP_mp4_40/ANIMEES/11-ANIMEES --- NEUTRES /video1.mp4","",NA,NA,"",NA,NA,NA,NA,"",NA,NA,NA,NA,NA,NA,NA,NA,NA,NA,"",NA,NA,NA,NA,NA,NA,NA,"Animated"
"112",NA,NA,"",NA,NA,"842187",1,"2025-03-31_11h38.47.672","Emotion.Memoire.2024","2024.1.5","MacIntel",19.60784314,625.558,635.556,635.557,640.29,7,1.052,3,4.709,0,31,31,31,1,"IMAGES_EXP_mp4_40/FIXES/FIX-NEUTRE-mp4/image6.mp4","IMAGES_EXP_mp4_40/FIXES/FIX-NEUTRE-mp4/image9.mp4","",NA,NA,"",NA,NA,NA,NA,"",NA,NA,NA,NA,NA,NA,NA,NA,NA,NA,"",NA,NA,NA,NA,NA,NA,NA,"Fixed"
"113",NA,NA,"",NA,NA,"842187",1,"2025-03-31_11h38.47.672","Emotion.Memoire.2024","2024.1.5","MacIntel",19.60784314,640.292,650.289,650.29,655.523,2,3.744,5,5.221,0,32,32,32,1,"IMAGES_EXP_mp4_40/ANIMEES/10- ANIMEES --NEGATIVES /Video2.mp4","IMAGES_EXP_mp4_40/ANIMEES/10- ANIMEES --NEGATIVES /Video6.mp4","",NA,NA,"",NA,NA,NA,NA,"",NA,NA,NA,NA,NA,NA,NA,NA,NA,NA,"",NA,NA,NA,NA,NA,NA,NA,"Animated"
"114",NA,NA,"",NA,NA,"842187",1,"2025-03-31_11h38.47.672","Emotion.Memoire.2024","2024.1.5","MacIntel",19.60784314,655.524,665.524,665.526,673.823,2,6.038,6,8.285,0,33,33,33,1,"IMAGES_EXP_mp4_40/ANIMEES/10- ANIMEES --NEGATIVES /Video3.mp4","IMAGES_EXP_mp4_40/ANIMEES/11-ANIMEES --- NEUTRES /video3.mp4","",NA,NA,"",NA,NA,NA,NA,"",NA,NA,NA,NA,NA,NA,NA,NA,NA,NA,"",NA,NA,NA,NA,NA,NA,NA,"Animated"
"115",NA,NA,"",NA,NA,"842187",1,"2025-03-31_11h38.47.672","Emotion.Memoire.2024","2024.1.5","MacIntel",19.60784314,673.825,683.823,683.824,689.223,7,4.152,3,5.371,0,34,34,34,1,"IMAGES_EXP_mp4_40/FIXES/FIX-NEUTRE-mp4/image2.mp4","DISTRACTEURS-40/DIST.ANIMÉES-20/10.NÉGATIFS/Dist.animee.negatif7.mp4","",NA,NA,"",NA,NA,NA,NA,"",NA,NA,NA,NA,NA,NA,NA,NA,NA,NA,"",NA,NA,NA,NA,NA,NA,NA,"Fixed"
"116",NA,NA,"",NA,NA,"842187",1,"2025-03-31_11h38.47.672","Emotion.Memoire.2024","2024.1.5","MacIntel",19.60784314,689.223,699.222,699.224,702.489,7,2.036,2,3.257,0,35,35,35,1,"IMAGES_EXP_mp4_40/FIXES/FIX-NEUTRE-mp4/image3.mp4","IMAGES_EXP_mp4_40/ANIMEES/11-ANIMEES --- NEUTRES /video9.mp4","",NA,NA,"",NA,NA,NA,NA,"",NA,NA,NA,NA,NA,NA,NA,NA,NA,NA,"",NA,NA,NA,NA,NA,NA,NA,"Fixed"
"117",NA,NA,"",NA,NA,"842187",1,"2025-03-31_11h38.47.672","Emotion.Memoire.2024","2024.1.5","MacIntel",19.60784314,702.49,712.488,712.489,720.156,5,6.531,5,7.641,0,36,36,36,1,"IMAGES_EXP_mp4_40/FIXES/FIX-NEGATIF-mp4/Image9.mp4","DISTRACTEURS-40/DIST.ANIMÉES-20/10.NEUTRES/Dist.animee.neutre6.mp4","",NA,NA,"",NA,NA,NA,NA,"",NA,NA,NA,NA,NA,NA,NA,NA,NA,NA,"",NA,NA,NA,NA,NA,NA,NA,"Fixed"
"118",NA,NA,"",NA,NA,"842187",1,"2025-03-31_11h38.47.672","Emotion.Memoire.2024","2024.1.5","MacIntel",19.60784314,720.156,730.155,730.155,734.921,3,2.092,3,4.744,0,37,37,37,1,"IMAGES_EXP_mp4_40/FIXES/FIX-NEGATIF-mp4/Image7.mp4","IMAGES_EXP_mp4_40/FIXES/FIX-NEGATIF-mp4/Image8.mp4","",NA,NA,"",NA,NA,NA,NA,"",NA,NA,NA,NA,NA,NA,NA,NA,NA,NA,"",NA,NA,NA,NA,NA,NA,NA,"Fixed"
"119",NA,NA,"",NA,NA,"842187",1,"2025-03-31_11h38.47.672","Emotion.Memoire.2024","2024.1.5","MacIntel",19.60784314,734.922,744.922,744.923,777.956,2,31.14,7,33.011,0,38,38,38,1,"IMAGES_EXP_mp4_40/ANIMEES/10- ANIMEES --NEGATIVES /Video6.mp4","IMAGES_EXP_mp4_40/FIXES/FIX-NEUTRE-mp4/image8.mp4","",NA,NA,"",NA,NA,NA,NA,"",NA,NA,NA,NA,NA,NA,NA,NA,NA,NA,"",NA,NA,NA,NA,NA,NA,NA,"Animated"
"120",NA,NA,"",NA,NA,"842187",1,"2025-03-31_11h38.47.672","Emotion.Memoire.2024","2024.1.5","MacIntel",19.60784314,777.957,787.955,787.957,791.122,2,1.91,7,3.153,0,39,39,39,1,"IMAGES_EXP_mp4_40/FIXES/FIX-NEUTRE-mp4/image1.mp4","IMAGES_EXP_mp4_40/ANIMEES/11-ANIMEES --- NEUTRES /video7.mp4","",NA,NA,"",NA,NA,NA,NA,"",NA,NA,NA,NA,NA,NA,NA,NA,NA,NA,"",NA,NA,NA,NA,NA,NA,NA,"Fixed"
"121",NA,NA,"",NA,NA,"924827",1,"2025-04-16_00h31.25.802","Emotion.Memoire.2024","2024.1.5","MacIntel",30.03003003,52.4254,62.4167,62.4172,87.9161,1,15.2952,1,25.4744,0,0,0,0,1,"IMAGES_EXP_mp4_40/FIXES/FIX-NEGATIF-mp4/Image6.mp4","DISTRACTEURS-40/DIST.ANIMÉES-20/10.NÉGATIFS/Dist.animee.negatif10.mp4","IMAGES_EXP_mp4_40/ANIMEES/10- ANIMEES --NEGATIVES /Video1.mp4",NA,NA,"",NA,NA,NA,NA,"",NA,NA,NA,NA,NA,NA,NA,NA,NA,NA,"",NA,NA,NA,NA,NA,NA,NA,"Fixed"
"122",NA,NA,"",NA,NA,"924827",1,"2025-04-16_00h31.25.802","Emotion.Memoire.2024","2024.1.5","MacIntel",30.03003003,87.9166,97.9155,97.9158,117.7158,5,14.2964,1,19.7922,0,1,1,1,1,"IMAGES_EXP_mp4_40/FIXES/FIX-NEUTRE-mp4/image9.mp4","DISTRACTEURS-40/DIST.ANIMÉES-20/10.NEUTRES/Dist.animee.neutre3.mp4","DISTRACTEURS-40/DIST.FIXES-20/10.NÉGATIFS/Dist.fix.negatif3.mp4",NA,NA,"",NA,NA,NA,NA,"",NA,NA,NA,NA,NA,NA,NA,NA,NA,NA,"",NA,NA,NA,NA,NA,NA,NA,"Fixed"
"123",NA,NA,"",NA,NA,"924827",1,"2025-04-16_00h31.25.802","Emotion.Memoire.2024","2024.1.5","MacIntel",30.03003003,117.7163,127.7153,127.7156,143.6818,1,9.3795,1,15.9464,0,2,2,2,1,"IMAGES_EXP_mp4_40/FIXES/FIX-NEGATIF-mp4/Image3.mp4","IMAGES_EXP_mp4_40/ANIMEES/10- ANIMEES --NEGATIVES /Video2.mp4","DISTRACTEURS-40/DIST.FIXES-20/10.NÉGATIFS/Dist.fix.negatif5.mp4",NA,NA,"",NA,NA,NA,NA,"",NA,NA,NA,NA,NA,NA,NA,NA,NA,NA,"",NA,NA,NA,NA,NA,NA,NA,"Fixed"
"124",NA,NA,"",NA,NA,"924827",1,"2025-04-16_00h31.25.802","Emotion.Memoire.2024","2024.1.5","MacIntel",30.03003003,143.6821,153.6809,153.6811,172.6813,5,11.4636,1,18.9968,0,3,3,3,1,"IMAGES_EXP_mp4_40/FIXES/FIX-NEGATIF-mp4/Image4.mp4","IMAGES_EXP_mp4_40/FIXES/FIX-NEUTRE-mp4/image6.mp4","",NA,NA,"",NA,NA,NA,NA,"",NA,NA,NA,NA,NA,NA,NA,NA,NA,NA,"",NA,NA,NA,NA,NA,NA,NA,"Fixed"
"125",NA,NA,"",NA,NA,"924827",1,"2025-04-16_00h31.25.802","Emotion.Memoire.2024","2024.1.5","MacIntel",30.03003003,172.6816,182.6818,182.682,185.3145,5,1.5952,1,2.6288,0,4,4,4,1,"IMAGES_EXP_mp4_40/FIXES/FIX-NEGATIF-mp4/Image10.mp4","IMAGES_EXP_mp4_40/FIXES/FIX-NEUTRE-mp4/image2.mp4","",NA,NA,"",NA,NA,NA,NA,"",NA,NA,NA,NA,NA,NA,NA,NA,NA,NA,"",NA,NA,NA,NA,NA,NA,NA,"Fixed"
"126",NA,NA,"",NA,NA,"924827",1,"2025-04-16_00h31.25.802","Emotion.Memoire.2024","2024.1.5","MacIntel",30.03003003,185.3148,195.3144,195.3147,201.6476,5,4.8963,1,6.31,0,5,5,5,1,"IMAGES_EXP_mp4_40/ANIMEES/11-ANIMEES --- NEUTRES /video10.mp4","DISTRACTEURS-40/DIST.FIXES-20/10.NEUTRES /Dist.fix.neutre7.mp4","",NA,NA,"",NA,NA,NA,NA,"",NA,NA,NA,NA,NA,NA,NA,NA,NA,NA,"",NA,NA,NA,NA,NA,NA,NA,"Animated"
"127",NA,NA,"",NA,NA,"924827",1,"2025-04-16_00h31.25.802","Emotion.Memoire.2024","2024.1.5","MacIntel",30.03003003,201.6478,211.6474,211.6475,230.0472,5,17.1297,1,18.3788,0,6,6,6,1,"IMAGES_EXP_mp4_40/ANIMEES/10- ANIMEES --NEGATIVES /Video4.mp4","DISTRACTEURS-40/DIST.ANIMÉES-20/10.NÉGATIFS/Dist.animee.negatif4.mp4","",NA,NA,"",NA,NA,NA,NA,"",NA,NA,NA,NA,NA,NA,NA,NA,NA,NA,"",NA,NA,NA,NA,NA,NA,NA,"Animated"
"128",NA,NA,"",NA,NA,"924827",1,"2025-04-16_00h31.25.802","Emotion.Memoire.2024","2024.1.5","MacIntel",30.03003003,230.0475,240.0474,240.0478,253.6459,5,11.813,1,13.5957,0,7,7,7,1,"IMAGES_EXP_mp4_40/FIXES/FIX-NEUTRE-mp4/image10.mp4","IMAGES_EXP_mp4_40/FIXES/FIX-NEGATIF-mp4/Image2.mp4","",NA,NA,"",NA,NA,NA,NA,"",NA,NA,NA,NA,NA,NA,NA,NA,NA,NA,"",NA,NA,NA,NA,NA,NA,NA,"Fixed"
"129",NA,NA,"",NA,NA,"924827",1,"2025-04-16_00h31.25.802","Emotion.Memoire.2024","2024.1.5","MacIntel",30.03003003,253.6461,263.6136,263.6139,266.7135,1,2.1951,1,3.0783,0,8,8,8,1,"IMAGES_EXP_mp4_40/ANIMEES/10- ANIMEES --NEGATIVES /Video1.mp4","IMAGES_EXP_mp4_40/FIXES/FIX-NEGATIF-mp4/Image9.mp4","",NA,NA,"",NA,NA,NA,NA,"",NA,NA,NA,NA,NA,NA,NA,NA,NA,NA,"",NA,NA,NA,NA,NA,NA,NA,"Animated"
"130",NA,NA,"",NA,NA,"924827",1,"2025-04-16_00h31.25.802","Emotion.Memoire.2024","2024.1.5","MacIntel",30.03003003,266.7139,276.7136,276.7139,279.3788,5,1.5954,1,2.6624,0,9,9,9,1,"IMAGES_EXP_mp4_40/FIXES/FIX-NEUTRE-mp4/image4.mp4","DISTRACTEURS-40/DIST.FIXES-20/10.NEUTRES /Dist.fix.neutre8.mp4","",NA,NA,"",NA,NA,NA,NA,"",NA,NA,NA,NA,NA,NA,NA,NA,NA,NA,"",NA,NA,NA,NA,NA,NA,NA,"Fixed"
"131",NA,NA,"",NA,NA,"924827",1,"2025-04-16_00h31.25.802","Emotion.Memoire.2024","2024.1.5","MacIntel",30.03003003,279.379,289.3801,289.3804,296.646,3,5.6769,1,7.2444,0,10,10,10,1,"IMAGES_EXP_mp4_40/ANIMEES/11-ANIMEES --- NEUTRES /video6.mp4","DISTRACTEURS-40/DIST.ANIMÉES-20/10.NÉGATIFS/Dist.animee.negatif8.mp4","",NA,NA,"",NA,NA,NA,NA,"",NA,NA,NA,NA,NA,NA,NA,NA,NA,NA,"",NA,NA,NA,NA,NA,NA,NA,"Animated"
"132",NA,NA,"",NA,NA,"924827",1,"2025-04-16_00h31.25.802","Emotion.Memoire.2024","2024.1.5","MacIntel",30.03003003,296.6462,306.6459,306.6461,310.579,5,3.1134,1,3.9291,0,11,11,11,1,"IMAGES_EXP_mp4_40/ANIMEES/11-ANIMEES --- NEUTRES /video9.mp4","IMAGES_EXP_mp4_40/ANIMEES/11-ANIMEES --- NEUTRES /video8.mp4","",NA,NA,"",NA,NA,NA,NA,"",NA,NA,NA,NA,NA,NA,NA,NA,NA,NA,"",NA,NA,NA,NA,NA,NA,NA,"Animated"
"133",NA,NA,"",NA,NA,"924827",1,"2025-04-16_00h31.25.802","Emotion.Memoire.2024","2024.1.5","MacIntel",30.03003003,310.5793,320.5797,320.5799,338.0779,5,16.5614,1,17.4776,0,12,12,12,1,"IMAGES_EXP_mp4_40/FIXES/FIX-NEUTRE-mp4/image8.mp4","IMAGES_EXP_mp4_40/ANIMEES/10- ANIMEES --NEGATIVES /Video8.mp4","",NA,NA,"",NA,NA,NA,NA,"",NA,NA,NA,NA,NA,NA,NA,NA,NA,NA,"",NA,NA,NA,NA,NA,NA,NA,"Fixed"
"134",NA,NA,"",NA,NA,"924827",1,"2025-04-16_00h31.25.802","Emotion.Memoire.2024","2024.1.5","MacIntel",30.03003003,338.0781,348.0785,348.0788,353.6453,5,2.2967,1,5.5417,0,13,13,13,1,"IMAGES_EXP_mp4_40/ANIMEES/11-ANIMEES --- NEUTRES /video5.mp4","DISTRACTEURS-40/DIST.FIXES-20/10.NÉGATIFS/Dist.fix.negatif8.mp4","",NA,NA,"",NA,NA,NA,NA,"",NA,NA,NA,NA,NA,NA,NA,NA,NA,NA,"",NA,NA,NA,NA,NA,NA,NA,"Animated"
"135",NA,NA,"",NA,NA,"924827",1,"2025-04-16_00h31.25.802","Emotion.Memoire.2024","2024.1.5","MacIntel",30.03003003,353.6456,363.6451,363.6453,367.9119,5,2.6961,1,4.2625,0,14,14,14,1,"IMAGES_EXP_mp4_40/ANIMEES/11-ANIMEES --- NEUTRES /video1.mp4","DISTRACTEURS-40/DIST.FIXES-20/10.NEUTRES /Dist.fix.neutre2.mp4","",NA,NA,"",NA,NA,NA,NA,"",NA,NA,NA,NA,NA,NA,NA,NA,NA,NA,"",NA,NA,NA,NA,NA,NA,NA,"Animated"
"136",NA,NA,"",NA,NA,"924827",1,"2025-04-16_00h31.25.802","Emotion.Memoire.2024","2024.1.5","MacIntel",30.03003003,367.9122,377.3122,377.3123,384.011,3,4.9782,1,6.6788,0,15,15,15,1,"IMAGES_EXP_mp4_40/ANIMEES/10- ANIMEES --NEGATIVES /Video9.mp4","DISTRACTEURS-40/DIST.ANIMÉES-20/10.NEUTRES/Dist.animee.neutre10.mp4","",NA,NA,"",NA,NA,NA,NA,"",NA,NA,NA,NA,NA,NA,NA,NA,NA,NA,"",NA,NA,NA,NA,NA,NA,NA,"Animated"
"137",NA,NA,"",NA,NA,"924827",1,"2025-04-16_00h31.25.802","Emotion.Memoire.2024","2024.1.5","MacIntel",30.03003003,384.0113,392.8784,392.8784,397.9779,4,4.2632,1,5.0788,0,16,16,16,1,"IMAGES_EXP_mp4_40/ANIMEES/10- ANIMEES --NEGATIVES /Video8.mp4","DISTRACTEURS-40/DIST.FIXES-20/10.NEUTRES /Dist.fix.neutre5.mp4","",NA,NA,"",NA,NA,NA,NA,"",NA,NA,NA,NA,NA,NA,NA,NA,NA,NA,"",NA,NA,NA,NA,NA,NA,NA,"Animated"
"138",NA,NA,"",NA,NA,"924827",1,"2025-04-16_00h31.25.802","Emotion.Memoire.2024","2024.1.5","MacIntel",30.03003003,397.9782,407.9772,407.9773,412.8781,3,3.3809,1,4.8809,0,17,17,17,1,"IMAGES_EXP_mp4_40/FIXES/FIX-NEGATIF-mp4/Image5.mp4","DISTRACTEURS-40/DIST.ANIMÉES-20/10.NEUTRES/Dist.animee.neutre1.mp4","",NA,NA,"",NA,NA,NA,NA,"",NA,NA,NA,NA,NA,NA,NA,NA,NA,NA,"",NA,NA,NA,NA,NA,NA,NA,"Fixed"
"139",NA,NA,"",NA,NA,"924827",1,"2025-04-16_00h31.25.802","Emotion.Memoire.2024","2024.1.5","MacIntel",30.03003003,412.8783,422.8772,422.8774,425.2105,5,1.5262,1,2.3137,0,18,18,18,1,"IMAGES_EXP_mp4_40/ANIMEES/11-ANIMEES --- NEUTRES /video2.mp4","IMAGES_EXP_mp4_40/FIXES/FIX-NEUTRE-mp4/image5.mp4","",NA,NA,"",NA,NA,NA,NA,"",NA,NA,NA,NA,NA,NA,NA,NA,NA,NA,"",NA,NA,NA,NA,NA,NA,NA,"Animated"
"140",NA,NA,"",NA,NA,"924827",1,"2025-04-16_00h31.25.802","Emotion.Memoire.2024","2024.1.5","MacIntel",30.03003003,425.2109,435.2105,435.2107,438.044,5,1.8292,1,2.8292,0,19,19,19,1,"IMAGES_EXP_mp4_40/ANIMEES/10- ANIMEES --NEGATIVES /Video7.mp4","IMAGES_EXP_mp4_40/FIXES/FIX-NEUTRE-mp4/image7.mp4","",NA,NA,"",NA,NA,NA,NA,"",NA,NA,NA,NA,NA,NA,NA,NA,NA,NA,"",NA,NA,NA,NA,NA,NA,NA,"Animated"
"141",NA,NA,"",NA,NA,"924827",1,"2025-04-16_00h31.25.802","Emotion.Memoire.2024","2024.1.5","MacIntel",30.03003003,438.0443,448.0442,448.0445,450.611,5,1.7619,1,2.5462,0,20,20,20,1,"IMAGES_EXP_mp4_40/FIXES/FIX-NEUTRE-mp4/image5.mp4","IMAGES_EXP_mp4_40/ANIMEES/10- ANIMEES --NEGATIVES /Video10.mp4","",NA,NA,"",NA,NA,NA,NA,"",NA,NA,NA,NA,NA,NA,NA,NA,NA,NA,"",NA,NA,NA,NA,NA,NA,NA,"Fixed"
"142",NA,NA,"",NA,NA,"924827",1,"2025-04-16_00h31.25.802","Emotion.Memoire.2024","2024.1.5","MacIntel",30.03003003,450.6114,460.6107,460.6109,465.5107,5,4.0449,1,4.8951,0,21,21,21,1,"IMAGES_EXP_mp4_40/ANIMEES/11-ANIMEES --- NEUTRES /video3.mp4","IMAGES_EXP_mp4_40/ANIMEES/10- ANIMEES --NEGATIVES /Video4.mp4","",NA,NA,"",NA,NA,NA,NA,"",NA,NA,NA,NA,NA,NA,NA,NA,NA,NA,"",NA,NA,NA,NA,NA,NA,NA,"Animated"
"143",NA,NA,"",NA,NA,"924827",1,"2025-04-16_00h31.25.802","Emotion.Memoire.2024","2024.1.5","MacIntel",30.03003003,465.5111,475.5097,475.5099,479.7101,5,2.4298,1,4.1959,0,22,22,22,1,"IMAGES_EXP_mp4_40/ANIMEES/10- ANIMEES --NEGATIVES /Video5.mp4","IMAGES_EXP_mp4_40/ANIMEES/10- ANIMEES --NEGATIVES /Video5.mp4","",NA,NA,"",NA,NA,NA,NA,"",NA,NA,NA,NA,NA,NA,NA,NA,NA,NA,"",NA,NA,NA,NA,NA,NA,NA,"Animated"
"144",NA,NA,"",NA,NA,"924827",1,"2025-04-16_00h31.25.802","Emotion.Memoire.2024","2024.1.5","MacIntel",30.03003003,479.7104,489.7104,489.7107,491.9102,5,1.3449,1,2.1949,0,23,23,23,1,"IMAGES_EXP_mp4_40/ANIMEES/11-ANIMEES --- NEUTRES /video7.mp4","IMAGES_EXP_mp4_40/ANIMEES/11-ANIMEES --- NEUTRES /video6.mp4","",NA,NA,"",NA,NA,NA,NA,"",NA,NA,NA,NA,NA,NA,NA,NA,NA,NA,"",NA,NA,NA,NA,NA,NA,NA,"Animated"
"145",NA,NA,"",NA,NA,"924827",1,"2025-04-16_00h31.25.802","Emotion.Memoire.2024","2024.1.5","MacIntel",30.03003003,491.9104,501.9094,501.9096,504.0434,5,1.3952,1,2.1292,0,24,24,24,1,"IMAGES_EXP_mp4_40/FIXES/FIX-NEGATIF-mp4/Image8.mp4","IMAGES_EXP_mp4_40/ANIMEES/11-ANIMEES --- NEUTRES /video5.mp4","",NA,NA,"",NA,NA,NA,NA,"",NA,NA,NA,NA,NA,NA,NA,NA,NA,NA,"",NA,NA,NA,NA,NA,NA,NA,"Fixed"
"146",NA,NA,"",NA,NA,"924827",1,"2025-04-16_00h31.25.802","Emotion.Memoire.2024","2024.1.5","MacIntel",30.03003003,504.0437,514.0431,514.0433,519.3766,5,4.4457,1,5.3282,0,25,25,25,1,"IMAGES_EXP_mp4_40/FIXES/FIX-NEGATIF-mp4/Image2.mp4","DISTRACTEURS-40/DIST.ANIMÉES-20/10.NÉGATIFS/Dist.animee.negatif5.mp4","",NA,NA,"",NA,NA,NA,NA,"",NA,NA,NA,NA,NA,NA,NA,NA,NA,NA,"",NA,NA,NA,NA,NA,NA,NA,"Fixed"
"147",NA,NA,"",NA,NA,"924827",1,"2025-04-16_00h31.25.802","Emotion.Memoire.2024","2024.1.5","MacIntel",30.03003003,519.3769,529.3765,529.3766,531.8754,5,1.5136,1,2.4794,0,26,26,26,1,"IMAGES_EXP_mp4_40/FIXES/FIX-NEUTRE-mp4/image7.mp4","DISTRACTEURS-40/DIST.ANIMÉES-20/10.NEUTRES/Dist.animee.neutre4.mp4","",NA,NA,"",NA,NA,NA,NA,"",NA,NA,NA,NA,NA,NA,NA,NA,NA,NA,"",NA,NA,NA,NA,NA,NA,NA,"Fixed"
"148",NA,NA,"",NA,NA,"924827",1,"2025-04-16_00h31.25.802","Emotion.Memoire.2024","2024.1.5","MacIntel",30.03003003,531.8756,541.8766,541.8767,546.9095,5,4.3113,1,5.0291,0,27,27,27,1,"IMAGES_EXP_mp4_40/ANIMEES/11-ANIMEES --- NEUTRES /video4.mp4","DISTRACTEURS-40/DIST.FIXES-20/10.NEUTRES /Dist.fix.neutre10.mp4","",NA,NA,"",NA,NA,NA,NA,"",NA,NA,NA,NA,NA,NA,NA,NA,NA,NA,"",NA,NA,NA,NA,NA,NA,NA,"Animated"
"149",NA,NA,"",NA,NA,"924827",1,"2025-04-16_00h31.25.802","Emotion.Memoire.2024","2024.1.5","MacIntel",30.03003003,546.9098,556.9091,556.9093,559.5089,5,1.58,1,2.5792,0,28,28,28,1,"IMAGES_EXP_mp4_40/FIXES/FIX-NEGATIF-mp4/Image1.mp4","IMAGES_EXP_mp4_40/FIXES/FIX-NEGATIF-mp4/Image3.mp4","",NA,NA,"",NA,NA,NA,NA,"",NA,NA,NA,NA,NA,NA,NA,NA,NA,NA,"",NA,NA,NA,NA,NA,NA,NA,"Fixed"
"150",NA,NA,"",NA,NA,"924827",1,"2025-04-16_00h31.25.802","Emotion.Memoire.2024","2024.1.5","MacIntel",30.03003003,559.5092,569.5094,569.5096,574.0086,3,3.628,1,4.479,0,29,29,29,1,"IMAGES_EXP_mp4_40/ANIMEES/10- ANIMEES --NEGATIVES /Video10.mp4","DISTRACTEURS-40/DIST.FIXES-20/10.NÉGATIFS/Dist.fix.negatif6.mp4","",NA,NA,"",NA,NA,NA,NA,"",NA,NA,NA,NA,NA,NA,NA,NA,NA,NA,"",NA,NA,NA,NA,NA,NA,NA,"Animated"
"151",NA,NA,"",NA,NA,"924827",1,"2025-04-16_00h31.25.802","Emotion.Memoire.2024","2024.1.5","MacIntel",30.03003003,574.0089,584.0092,584.0093,590.6748,7,4.1952,1,6.6622,0,30,30,30,1,"IMAGES_EXP_mp4_40/ANIMEES/11-ANIMEES --- NEUTRES /video8.mp4","IMAGES_EXP_mp4_40/ANIMEES/11-ANIMEES --- NEUTRES /video1.mp4","",NA,NA,"",NA,NA,NA,NA,"",NA,NA,NA,NA,NA,NA,NA,NA,NA,NA,"",NA,NA,NA,NA,NA,NA,NA,"Animated"
"152",NA,NA,"",NA,NA,"924827",1,"2025-04-16_00h31.25.802","Emotion.Memoire.2024","2024.1.5","MacIntel",30.03003003,590.6752,600.6757,600.6758,604.2079,8,2.095,1,3.5126,0,31,31,31,1,"IMAGES_EXP_mp4_40/FIXES/FIX-NEUTRE-mp4/image6.mp4","IMAGES_EXP_mp4_40/FIXES/FIX-NEUTRE-mp4/image9.mp4","",NA,NA,"",NA,NA,NA,NA,"",NA,NA,NA,NA,NA,NA,NA,NA,NA,NA,"",NA,NA,NA,NA,NA,NA,NA,"Fixed"
"153",NA,NA,"",NA,NA,"924827",1,"2025-04-16_00h31.25.802","Emotion.Memoire.2024","2024.1.5","MacIntel",30.03003003,604.2082,614.2084,614.2086,620.142,5,4.7621,1,5.9289,0,32,32,32,1,"IMAGES_EXP_mp4_40/ANIMEES/10- ANIMEES --NEGATIVES /Video2.mp4","IMAGES_EXP_mp4_40/ANIMEES/10- ANIMEES --NEGATIVES /Video6.mp4","",NA,NA,"",NA,NA,NA,NA,"",NA,NA,NA,NA,NA,NA,NA,NA,NA,NA,"",NA,NA,NA,NA,NA,NA,NA,"Animated"
"154",NA,NA,"",NA,NA,"924827",1,"2025-04-16_00h31.25.802","Emotion.Memoire.2024","2024.1.5","MacIntel",30.03003003,620.1424,630.1419,630.1421,636.1085,5,1.7438,1,5.9443,0,33,33,33,1,"IMAGES_EXP_mp4_40/ANIMEES/10- ANIMEES --NEGATIVES /Video3.mp4","IMAGES_EXP_mp4_40/ANIMEES/11-ANIMEES --- NEUTRES /video3.mp4","",NA,NA,"",NA,NA,NA,NA,"",NA,NA,NA,NA,NA,NA,NA,NA,NA,NA,"",NA,NA,NA,NA,NA,NA,NA,"Animated"
"155",NA,NA,"",NA,NA,"924827",1,"2025-04-16_00h31.25.802","Emotion.Memoire.2024","2024.1.5","MacIntel",30.03003003,636.1088,646.1073,646.1074,651.0071,6,3.7955,1,4.8791,0,34,34,34,1,"IMAGES_EXP_mp4_40/FIXES/FIX-NEUTRE-mp4/image2.mp4","DISTRACTEURS-40/DIST.ANIMÉES-20/10.NÉGATIFS/Dist.animee.negatif7.mp4","",NA,NA,"",NA,NA,NA,NA,"",NA,NA,NA,NA,NA,NA,NA,NA,NA,NA,"",NA,NA,NA,NA,NA,NA,NA,"Fixed"
"156",NA,NA,"",NA,NA,"924827",1,"2025-04-16_00h31.25.802","Emotion.Memoire.2024","2024.1.5","MacIntel",30.03003003,651.0074,661.0084,661.0088,663.7418,5,1.8461,1,2.712,0,35,35,35,1,"IMAGES_EXP_mp4_40/FIXES/FIX-NEUTRE-mp4/image3.mp4","IMAGES_EXP_mp4_40/ANIMEES/11-ANIMEES --- NEUTRES /video9.mp4","",NA,NA,"",NA,NA,NA,NA,"",NA,NA,NA,NA,NA,NA,NA,NA,NA,NA,"",NA,NA,NA,NA,NA,NA,NA,"Fixed"
"157",NA,NA,"",NA,NA,"924827",1,"2025-04-16_00h31.25.802","Emotion.Memoire.2024","2024.1.5","MacIntel",30.03003003,663.7422,673.7405,673.7409,676.908,5,1.1585,1,3.1626,0,36,36,36,1,"IMAGES_EXP_mp4_40/FIXES/FIX-NEGATIF-mp4/Image9.mp4","DISTRACTEURS-40/DIST.ANIMÉES-20/10.NEUTRES/Dist.animee.neutre6.mp4","",NA,NA,"",NA,NA,NA,NA,"",NA,NA,NA,NA,NA,NA,NA,NA,NA,NA,"",NA,NA,NA,NA,NA,NA,NA,"Fixed"
"158",NA,NA,"",NA,NA,"924827",1,"2025-04-16_00h31.25.802","Emotion.Memoire.2024","2024.1.5","MacIntel",30.03003003,676.9084,686.8946,686.8951,689.84,5,1.4954,1,2.9399,0,37,37,37,1,"IMAGES_EXP_mp4_40/FIXES/FIX-NEGATIF-mp4/Image7.mp4","IMAGES_EXP_mp4_40/FIXES/FIX-NEGATIF-mp4/Image8.mp4","",NA,NA,"",NA,NA,NA,NA,"",NA,NA,NA,NA,NA,NA,NA,NA,NA,NA,"",NA,NA,NA,NA,NA,NA,NA,"Fixed"
"159",NA,NA,"",NA,NA,"924827",1,"2025-04-16_00h31.25.802","Emotion.Memoire.2024","2024.1.5","MacIntel",30.03003003,689.8405,699.8411,699.8414,702.074,5,1.2786,1,2.2277,0,38,38,38,1,"IMAGES_EXP_mp4_40/ANIMEES/10- ANIMEES --NEGATIVES /Video6.mp4","IMAGES_EXP_mp4_40/FIXES/FIX-NEUTRE-mp4/image8.mp4","",NA,NA,"",NA,NA,NA,NA,"",NA,NA,NA,NA,NA,NA,NA,NA,NA,NA,"",NA,NA,NA,NA,NA,NA,NA,"Animated"
"160",NA,NA,"",NA,NA,"924827",1,"2025-04-16_00h31.25.802","Emotion.Memoire.2024","2024.1.5","MacIntel",30.03003003,702.0743,712.0743,712.0746,714.4742,5,1.3275,1,2.3783,0,39,39,39,1,"IMAGES_EXP_mp4_40/FIXES/FIX-NEUTRE-mp4/image1.mp4","IMAGES_EXP_mp4_40/ANIMEES/11-ANIMEES --- NEUTRES /video7.mp4","",NA,NA,"",NA,NA,NA,NA,"",NA,NA,NA,NA,NA,NA,NA,NA,NA,NA,"",NA,NA,NA,NA,NA,NA,NA,"Fixed"
"161",NA,NA,"",NA,NA,"974490",1,"2025-03-25_11h48.28.273","Emotion.Memoire.2024","2024.1.5","Win32",2.608242045,5573.459,5583.4623,5583.4634,5604.0289,5,10.5445,3,20.5604,0,0,0,0,1,"IMAGES_EXP_mp4_40/FIXES/FIX-NEGATIF-mp4/Image6.mp4","DISTRACTEURS-40/DIST.ANIMÉES-20/10.NÉGATIFS/Dist.animee.negatif10.mp4","IMAGES_EXP_mp4_40/ANIMEES/10- ANIMEES --NEGATIVES /Video1.mp4",NA,NA,"",NA,NA,NA,NA,"",NA,NA,NA,NA,NA,NA,NA,NA,NA,NA,"",NA,NA,NA,NA,NA,NA,NA,"Fixed"
"162",NA,NA,"",NA,NA,"974490",1,"2025-03-25_11h48.28.273","Emotion.Memoire.2024","2024.1.5","Win32",2.608242045,5604.0296,5614.0288,5614.0295,5636.0784,5,17.2746,1,22.0388,0,1,1,1,1,"IMAGES_EXP_mp4_40/FIXES/FIX-NEUTRE-mp4/image9.mp4","DISTRACTEURS-40/DIST.ANIMÉES-20/10.NEUTRES/Dist.animee.neutre3.mp4","DISTRACTEURS-40/DIST.FIXES-20/10.NÉGATIFS/Dist.fix.negatif3.mp4",NA,NA,"",NA,NA,NA,NA,"",NA,NA,NA,NA,NA,NA,NA,NA,NA,NA,"",NA,NA,NA,NA,NA,NA,NA,"Fixed"
"163",NA,NA,"",NA,NA,"974490",1,"2025-03-25_11h48.28.273","Emotion.Memoire.2024","2024.1.5","Win32",2.608242045,5636.0791,5646.0783,5646.0786,5665.7784,2,8.1447,3,19.689,0,2,2,2,1,"IMAGES_EXP_mp4_40/FIXES/FIX-NEGATIF-mp4/Image3.mp4","IMAGES_EXP_mp4_40/ANIMEES/10- ANIMEES --NEGATIVES /Video2.mp4","DISTRACTEURS-40/DIST.FIXES-20/10.NÉGATIFS/Dist.fix.negatif5.mp4",NA,NA,"",NA,NA,NA,NA,"",NA,NA,NA,NA,NA,NA,NA,NA,NA,NA,"",NA,NA,NA,NA,NA,NA,NA,"Fixed"
"164",NA,NA,"",NA,NA,"974490",1,"2025-03-25_11h48.28.273","Emotion.Memoire.2024","2024.1.5","Win32",2.608242045,5665.7793,5675.7789,5675.7798,5681.945,5,2.5957,3,6.1631,0,3,3,3,1,"IMAGES_EXP_mp4_40/FIXES/FIX-NEGATIF-mp4/Image4.mp4","IMAGES_EXP_mp4_40/FIXES/FIX-NEUTRE-mp4/image6.mp4","",NA,NA,"",NA,NA,NA,NA,"",NA,NA,NA,NA,NA,NA,NA,NA,NA,NA,"",NA,NA,NA,NA,NA,NA,NA,"Fixed"
"165",NA,NA,"",NA,NA,"974490",1,"2025-03-25_11h48.28.273","Emotion.Memoire.2024","2024.1.5","Win32",2.608242045,5681.9457,5691.9451,5691.9455,5701.3785,3,6.4782,3,9.4225,0,4,4,4,1,"IMAGES_EXP_mp4_40/FIXES/FIX-NEGATIF-mp4/Image10.mp4","IMAGES_EXP_mp4_40/FIXES/FIX-NEUTRE-mp4/image2.mp4","",NA,NA,"",NA,NA,NA,NA,"",NA,NA,NA,NA,NA,NA,NA,NA,NA,NA,"",NA,NA,NA,NA,NA,NA,NA,"Fixed"
"166",NA,NA,"",NA,NA,"974490",1,"2025-03-25_11h48.28.273","Emotion.Memoire.2024","2024.1.5","Win32",2.608242045,5701.3793,5711.3813,5711.3825,5716.5456,7,2.8011,5,5.1614,0,5,5,5,1,"IMAGES_EXP_mp4_40/ANIMEES/11-ANIMEES --- NEUTRES /video10.mp4","DISTRACTEURS-40/DIST.FIXES-20/10.NEUTRES /Dist.fix.neutre7.mp4","",NA,NA,"",NA,NA,NA,NA,"",NA,NA,NA,NA,NA,NA,NA,NA,NA,NA,"",NA,NA,NA,NA,NA,NA,NA,"Animated"
"167",NA,NA,"",NA,NA,"974490",1,"2025-03-25_11h48.28.273","Emotion.Memoire.2024","2024.1.5","Win32",2.608242045,5716.5461,5726.545,5726.5456,5733.8617,1,5.5582,1,7.3101,0,6,6,6,1,"IMAGES_EXP_mp4_40/ANIMEES/10- ANIMEES --NEGATIVES /Video4.mp4","DISTRACTEURS-40/DIST.ANIMÉES-20/10.NÉGATIFS/Dist.animee.negatif4.mp4","",NA,NA,"",NA,NA,NA,NA,"",NA,NA,NA,NA,NA,NA,NA,NA,NA,NA,"",NA,NA,NA,NA,NA,NA,NA,"Animated"
"168",NA,NA,"",NA,NA,"974490",1,"2025-03-25_11h48.28.273","Emotion.Memoire.2024","2024.1.5","Win32",2.608242045,5733.8625,5743.8618,5743.8624,5752.2951,8,5.8055,3,8.4217,0,7,7,7,1,"IMAGES_EXP_mp4_40/FIXES/FIX-NEUTRE-mp4/image10.mp4","IMAGES_EXP_mp4_40/FIXES/FIX-NEGATIF-mp4/Image2.mp4","",NA,NA,"",NA,NA,NA,NA,"",NA,NA,NA,NA,NA,NA,NA,NA,NA,NA,"",NA,NA,NA,NA,NA,NA,NA,"Fixed"
"169",NA,NA,"",NA,NA,"974490",1,"2025-03-25_11h48.28.273","Emotion.Memoire.2024","2024.1.5","Win32",2.608242045,5752.2956,5762.2784,5762.279,5766.0617,1,1.9676,7,3.7762,0,8,8,8,1,"IMAGES_EXP_mp4_40/ANIMEES/10- ANIMEES --NEGATIVES /Video1.mp4","IMAGES_EXP_mp4_40/FIXES/FIX-NEGATIF-mp4/Image9.mp4","",NA,NA,"",NA,NA,NA,NA,"",NA,NA,NA,NA,NA,NA,NA,NA,NA,NA,"",NA,NA,NA,NA,NA,NA,NA,"Animated"
"170",NA,NA,"",NA,NA,"974490",1,"2025-03-25_11h48.28.273","Emotion.Memoire.2024","2024.1.5","Win32",2.608242045,5766.0625,5776.062,5776.0626,5780.7616,1,3.3606,7,4.6886,0,9,9,9,1,"IMAGES_EXP_mp4_40/FIXES/FIX-NEUTRE-mp4/image4.mp4","DISTRACTEURS-40/DIST.FIXES-20/10.NEUTRES /Dist.fix.neutre8.mp4","",NA,NA,"",NA,NA,NA,NA,"",NA,NA,NA,NA,NA,NA,NA,NA,NA,NA,"",NA,NA,NA,NA,NA,NA,NA,"Fixed"
"171",NA,NA,"",NA,NA,"974490",1,"2025-03-25_11h48.28.273","Emotion.Memoire.2024","2024.1.5","Win32",2.608242045,5780.7622,5790.7612,5790.7617,5796.5117,7,4.0718,3,5.7397,0,10,10,10,1,"IMAGES_EXP_mp4_40/ANIMEES/11-ANIMEES --- NEUTRES /video6.mp4","DISTRACTEURS-40/DIST.ANIMÉES-20/10.NÉGATIFS/Dist.animee.negatif8.mp4","",NA,NA,"",NA,NA,NA,NA,"",NA,NA,NA,NA,NA,NA,NA,NA,NA,NA,"",NA,NA,NA,NA,NA,NA,NA,"Animated"
"172",NA,NA,"",NA,NA,"974490",1,"2025-03-25_11h48.28.273","Emotion.Memoire.2024","2024.1.5","Win32",2.608242045,5796.5124,5806.5125,5806.513,5811.1453,5,2.1064,1,4.6221,0,11,11,11,1,"IMAGES_EXP_mp4_40/ANIMEES/11-ANIMEES --- NEUTRES /video9.mp4","IMAGES_EXP_mp4_40/ANIMEES/11-ANIMEES --- NEUTRES /video8.mp4","",NA,NA,"",NA,NA,NA,NA,"",NA,NA,NA,NA,NA,NA,NA,NA,NA,NA,"",NA,NA,NA,NA,NA,NA,NA,"Animated"
"173",NA,NA,"",NA,NA,"974490",1,"2025-03-25_11h48.28.273","Emotion.Memoire.2024","2024.1.5","Win32",2.608242045,5811.1458,5821.1452,5821.1458,5824.4287,5,2.0625,3,3.2735,0,12,12,12,1,"IMAGES_EXP_mp4_40/FIXES/FIX-NEUTRE-mp4/image8.mp4","IMAGES_EXP_mp4_40/ANIMEES/10- ANIMEES --NEGATIVES /Video8.mp4","",NA,NA,"",NA,NA,NA,NA,"",NA,NA,NA,NA,NA,NA,NA,NA,NA,NA,"",NA,NA,NA,NA,NA,NA,NA,"Fixed"
"174",NA,NA,"",NA,NA,"974490",1,"2025-03-25_11h48.28.273","Emotion.Memoire.2024","2024.1.5","Win32",2.608242045,5824.429,5834.4283,5834.4286,5839.9454,4,2.6116,4,5.5155,0,13,13,13,1,"IMAGES_EXP_mp4_40/ANIMEES/11-ANIMEES --- NEUTRES /video5.mp4","DISTRACTEURS-40/DIST.FIXES-20/10.NÉGATIFS/Dist.fix.negatif8.mp4","",NA,NA,"",NA,NA,NA,NA,"",NA,NA,NA,NA,NA,NA,NA,NA,NA,NA,"",NA,NA,NA,NA,NA,NA,NA,"Animated"
"175",NA,NA,"",NA,NA,"974490",1,"2025-03-25_11h48.28.273","Emotion.Memoire.2024","2024.1.5","Win32",2.608242045,5839.9458,5849.945,5849.9453,5854.0285,5,2.2743,1,4.0789,0,14,14,14,1,"IMAGES_EXP_mp4_40/ANIMEES/11-ANIMEES --- NEUTRES /video1.mp4","DISTRACTEURS-40/DIST.FIXES-20/10.NEUTRES /Dist.fix.neutre2.mp4","",NA,NA,"",NA,NA,NA,NA,"",NA,NA,NA,NA,NA,NA,NA,NA,NA,NA,"",NA,NA,NA,NA,NA,NA,NA,"Animated"
"176",NA,NA,"",NA,NA,"974490",1,"2025-03-25_11h48.28.273","Emotion.Memoire.2024","2024.1.5","Win32",2.608242045,5854.0289,5863.2954,5863.2958,5869.4118,2,3.5226,5,6.1116,0,15,15,15,1,"IMAGES_EXP_mp4_40/ANIMEES/10- ANIMEES --NEGATIVES /Video9.mp4","DISTRACTEURS-40/DIST.ANIMÉES-20/10.NEUTRES/Dist.animee.neutre10.mp4","",NA,NA,"",NA,NA,NA,NA,"",NA,NA,NA,NA,NA,NA,NA,NA,NA,NA,"",NA,NA,NA,NA,NA,NA,NA,"Animated"
"177",NA,NA,"",NA,NA,"974490",1,"2025-03-25_11h48.28.273","Emotion.Memoire.2024","2024.1.5","Win32",2.608242045,5869.4125,5878.2619,5878.2621,5883.8284,1,2.7618,5,5.5558,0,16,16,16,1,"IMAGES_EXP_mp4_40/ANIMEES/10- ANIMEES --NEGATIVES /Video8.mp4","DISTRACTEURS-40/DIST.FIXES-20/10.NEUTRES /Dist.fix.neutre5.mp4","",NA,NA,"",NA,NA,NA,NA,"",NA,NA,NA,NA,NA,NA,NA,NA,NA,NA,"",NA,NA,NA,NA,NA,NA,NA,"Animated"
"178",NA,NA,"",NA,NA,"974490",1,"2025-03-25_11h48.28.273","Emotion.Memoire.2024","2024.1.5","Win32",2.608242045,5883.8289,5893.8286,5893.8296,5896.9119,1,1.826,7,3.0709,0,17,17,17,1,"IMAGES_EXP_mp4_40/FIXES/FIX-NEGATIF-mp4/Image5.mp4","DISTRACTEURS-40/DIST.ANIMÉES-20/10.NEUTRES/Dist.animee.neutre1.mp4","",NA,NA,"",NA,NA,NA,NA,"",NA,NA,NA,NA,NA,NA,NA,NA,NA,NA,"",NA,NA,NA,NA,NA,NA,NA,"Fixed"
"179",NA,NA,"",NA,NA,"974490",1,"2025-03-25_11h48.28.273","Emotion.Memoire.2024","2024.1.5","Win32",2.608242045,5896.9124,5906.9117,5906.9119,5911.3446,8,1.992,5,4.4233,0,18,18,18,1,"IMAGES_EXP_mp4_40/ANIMEES/11-ANIMEES --- NEUTRES /video2.mp4","IMAGES_EXP_mp4_40/FIXES/FIX-NEUTRE-mp4/image5.mp4","",NA,NA,"",NA,NA,NA,NA,"",NA,NA,NA,NA,NA,NA,NA,NA,NA,NA,"",NA,NA,NA,NA,NA,NA,NA,"Animated"
"180",NA,NA,"",NA,NA,"974490",1,"2025-03-25_11h48.28.273","Emotion.Memoire.2024","2024.1.5","Win32",2.608242045,5911.345,5921.3343,5921.3344,5924.395,1,1.6734,7,3.0506,0,19,19,19,1,"IMAGES_EXP_mp4_40/ANIMEES/10- ANIMEES --NEGATIVES /Video7.mp4","IMAGES_EXP_mp4_40/FIXES/FIX-NEUTRE-mp4/image7.mp4","",NA,NA,"",NA,NA,NA,NA,"",NA,NA,NA,NA,NA,NA,NA,NA,NA,NA,"",NA,NA,NA,NA,NA,NA,NA,"Animated"
"181",NA,NA,"",NA,NA,"974490",1,"2025-03-25_11h48.28.273","Emotion.Memoire.2024","2024.1.5","Win32",2.608242045,5924.3959,5934.3951,5934.3954,5937.8785,5,1.7412,1,3.4719,0,20,20,20,1,"IMAGES_EXP_mp4_40/FIXES/FIX-NEUTRE-mp4/image5.mp4","IMAGES_EXP_mp4_40/ANIMEES/10- ANIMEES --NEGATIVES /Video10.mp4","",NA,NA,"",NA,NA,NA,NA,"",NA,NA,NA,NA,NA,NA,NA,NA,NA,NA,"",NA,NA,NA,NA,NA,NA,NA,"Fixed"
"182",NA,NA,"",NA,NA,"974490",1,"2025-03-25_11h48.28.273","Emotion.Memoire.2024","2024.1.5","Win32",2.608242045,5937.8789,5947.8783,5947.8789,5953.8617,6,4.0247,3,5.976,0,21,21,21,1,"IMAGES_EXP_mp4_40/ANIMEES/11-ANIMEES --- NEUTRES /video3.mp4","IMAGES_EXP_mp4_40/ANIMEES/10- ANIMEES --NEGATIVES /Video4.mp4","",NA,NA,"",NA,NA,NA,NA,"",NA,NA,NA,NA,NA,NA,NA,NA,NA,NA,"",NA,NA,NA,NA,NA,NA,NA,"Animated"
"183",NA,NA,"",NA,NA,"974490",1,"2025-03-25_11h48.28.273","Emotion.Memoire.2024","2024.1.5","Win32",2.608242045,5953.8624,5963.862,5963.8627,5968.7783,5,2.2413,3,4.9048,0,22,22,22,1,"IMAGES_EXP_mp4_40/ANIMEES/10- ANIMEES --NEGATIVES /Video5.mp4","IMAGES_EXP_mp4_40/ANIMEES/10- ANIMEES --NEGATIVES /Video5.mp4","",NA,NA,"",NA,NA,NA,NA,"",NA,NA,NA,NA,NA,NA,NA,NA,NA,NA,"",NA,NA,NA,NA,NA,NA,NA,"Animated"
"184",NA,NA,"",NA,NA,"974490",1,"2025-03-25_11h48.28.273","Emotion.Memoire.2024","2024.1.5","Win32",2.608242045,5968.7788,5978.7787,5978.7796,5982.6616,5,2.22,1,3.8717,0,23,23,23,1,"IMAGES_EXP_mp4_40/ANIMEES/11-ANIMEES --- NEUTRES /video7.mp4","IMAGES_EXP_mp4_40/ANIMEES/11-ANIMEES --- NEUTRES /video6.mp4","",NA,NA,"",NA,NA,NA,NA,"",NA,NA,NA,NA,NA,NA,NA,NA,NA,NA,"",NA,NA,NA,NA,NA,NA,NA,"Animated"
"185",NA,NA,"",NA,NA,"974490",1,"2025-03-25_11h48.28.273","Emotion.Memoire.2024","2024.1.5","Win32",2.608242045,5982.6621,5992.6619,5992.6624,5996.6447,5,1.8415,4,3.9769,0,24,24,24,1,"IMAGES_EXP_mp4_40/FIXES/FIX-NEGATIF-mp4/Image8.mp4","IMAGES_EXP_mp4_40/ANIMEES/11-ANIMEES --- NEUTRES /video5.mp4","",NA,NA,"",NA,NA,NA,NA,"",NA,NA,NA,NA,NA,NA,NA,NA,NA,NA,"",NA,NA,NA,NA,NA,NA,NA,"Fixed"
"186",NA,NA,"",NA,NA,"974490",1,"2025-03-25_11h48.28.273","Emotion.Memoire.2024","2024.1.5","Win32",2.608242045,5996.6453,6006.645,6006.6457,6011.8117,1,1.93,7,5.1612,0,25,25,25,1,"IMAGES_EXP_mp4_40/FIXES/FIX-NEGATIF-mp4/Image2.mp4","DISTRACTEURS-40/DIST.ANIMÉES-20/10.NÉGATIFS/Dist.animee.negatif5.mp4","",NA,NA,"",NA,NA,NA,NA,"",NA,NA,NA,NA,NA,NA,NA,NA,NA,NA,"",NA,NA,NA,NA,NA,NA,NA,"Fixed"
"187",NA,NA,"",NA,NA,"974490",1,"2025-03-25_11h48.28.273","Emotion.Memoire.2024","2024.1.5","Win32",2.608242045,6011.8122,6021.8118,6021.8124,6026.0781,5,2.2193,5,4.2586,0,26,26,26,1,"IMAGES_EXP_mp4_40/FIXES/FIX-NEUTRE-mp4/image7.mp4","DISTRACTEURS-40/DIST.ANIMÉES-20/10.NEUTRES/Dist.animee.neutre4.mp4","",NA,NA,"",NA,NA,NA,NA,"",NA,NA,NA,NA,NA,NA,NA,NA,NA,NA,"",NA,NA,NA,NA,NA,NA,NA,"Fixed"
"188",NA,NA,"",NA,NA,"974490",1,"2025-03-25_11h48.28.273","Emotion.Memoire.2024","2024.1.5","Win32",2.608242045,6026.0787,6036.0782,6036.0786,6041.4114,5,3.1929,6,5.3214,0,27,27,27,1,"IMAGES_EXP_mp4_40/ANIMEES/11-ANIMEES --- NEUTRES /video4.mp4","DISTRACTEURS-40/DIST.FIXES-20/10.NEUTRES /Dist.fix.neutre10.mp4","",NA,NA,"",NA,NA,NA,NA,"",NA,NA,NA,NA,NA,NA,NA,NA,NA,NA,"",NA,NA,NA,NA,NA,NA,NA,"Animated"
"189",NA,NA,"",NA,NA,"974490",1,"2025-03-25_11h48.28.273","Emotion.Memoire.2024","2024.1.5","Win32",2.608242045,6041.4119,6052.4865,6052.4867,6058.9947,3,5.1369,5,6.4981,0,28,28,28,1,"IMAGES_EXP_mp4_40/FIXES/FIX-NEGATIF-mp4/Image1.mp4","IMAGES_EXP_mp4_40/FIXES/FIX-NEGATIF-mp4/Image3.mp4","",NA,NA,"",NA,NA,NA,NA,"",NA,NA,NA,NA,NA,NA,NA,NA,NA,NA,"",NA,NA,NA,NA,NA,NA,NA,"Fixed"
"190",NA,NA,"",NA,NA,"974490",1,"2025-03-25_11h48.28.273","Emotion.Memoire.2024","2024.1.5","Win32",2.608242045,6058.9951,6068.9948,6068.9951,6074.9114,4,3.5643,2,5.9081,0,29,29,29,1,"IMAGES_EXP_mp4_40/ANIMEES/10- ANIMEES --NEGATIVES /Video10.mp4","DISTRACTEURS-40/DIST.FIXES-20/10.NÉGATIFS/Dist.fix.negatif6.mp4","",NA,NA,"",NA,NA,NA,NA,"",NA,NA,NA,NA,NA,NA,NA,NA,NA,NA,"",NA,NA,NA,NA,NA,NA,NA,"Animated"
"191",NA,NA,"",NA,NA,"974490",1,"2025-03-25_11h48.28.273","Emotion.Memoire.2024","2024.1.5","Win32",2.608242045,6074.9119,6084.9113,6084.9114,6090.7114,5,1.7441,3,5.7918,0,30,30,30,1,"IMAGES_EXP_mp4_40/ANIMEES/11-ANIMEES --- NEUTRES /video8.mp4","IMAGES_EXP_mp4_40/ANIMEES/11-ANIMEES --- NEUTRES /video1.mp4","",NA,NA,"",NA,NA,NA,NA,"",NA,NA,NA,NA,NA,NA,NA,NA,NA,NA,"",NA,NA,NA,NA,NA,NA,NA,"Animated"
"192",NA,NA,"",NA,NA,"974490",1,"2025-03-25_11h48.28.273","Emotion.Memoire.2024","2024.1.5","Win32",2.608242045,6090.7117,6100.7114,6100.7115,6106.8781,6,3.7757,3,6.1559,0,31,31,31,1,"IMAGES_EXP_mp4_40/FIXES/FIX-NEUTRE-mp4/image6.mp4","IMAGES_EXP_mp4_40/FIXES/FIX-NEUTRE-mp4/image9.mp4","",NA,NA,"",NA,NA,NA,NA,"",NA,NA,NA,NA,NA,NA,NA,NA,NA,NA,"",NA,NA,NA,NA,NA,NA,NA,"Fixed"
"193",NA,NA,"",NA,NA,"974490",1,"2025-03-25_11h48.28.273","Emotion.Memoire.2024","2024.1.5","Win32",2.608242045,6106.8786,6116.8779,6116.8783,6121.5286,4,3.2061,5,4.649,0,32,32,32,1,"IMAGES_EXP_mp4_40/ANIMEES/10- ANIMEES --NEGATIVES /Video2.mp4","IMAGES_EXP_mp4_40/ANIMEES/10- ANIMEES --NEGATIVES /Video6.mp4","",NA,NA,"",NA,NA,NA,NA,"",NA,NA,NA,NA,NA,NA,NA,NA,NA,NA,"",NA,NA,NA,NA,NA,NA,NA,"Animated"
"194",NA,NA,"",NA,NA,"974490",1,"2025-03-25_11h48.28.273","Emotion.Memoire.2024","2024.1.5","Win32",2.608242045,6121.529,6131.5304,6131.5306,6136.3284,4,2.3895,3,4.789,0,33,33,33,1,"IMAGES_EXP_mp4_40/ANIMEES/10- ANIMEES --NEGATIVES /Video3.mp4","IMAGES_EXP_mp4_40/ANIMEES/11-ANIMEES --- NEUTRES /video3.mp4","",NA,NA,"",NA,NA,NA,NA,"",NA,NA,NA,NA,NA,NA,NA,NA,NA,NA,"",NA,NA,NA,NA,NA,NA,NA,"Animated"
"195",NA,NA,"",NA,NA,"974490",1,"2025-03-25_11h48.28.273","Emotion.Memoire.2024","2024.1.5","Win32",2.608242045,6136.3288,6146.3282,6146.3287,6150.0114,7,2.2786,7,3.6786,0,34,34,34,1,"IMAGES_EXP_mp4_40/FIXES/FIX-NEUTRE-mp4/image2.mp4","DISTRACTEURS-40/DIST.ANIMÉES-20/10.NÉGATIFS/Dist.animee.negatif7.mp4","",NA,NA,"",NA,NA,NA,NA,"",NA,NA,NA,NA,NA,NA,NA,NA,NA,NA,"",NA,NA,NA,NA,NA,NA,NA,"Fixed"
"196",NA,NA,"",NA,NA,"974490",1,"2025-03-25_11h48.28.273","Emotion.Memoire.2024","2024.1.5","Win32",2.608242045,6150.0121,6160.0149,6160.0154,6162.6952,6,1.7443,7,2.6717,0,35,35,35,1,"IMAGES_EXP_mp4_40/FIXES/FIX-NEUTRE-mp4/image3.mp4","IMAGES_EXP_mp4_40/ANIMEES/11-ANIMEES --- NEUTRES /video9.mp4","",NA,NA,"",NA,NA,NA,NA,"",NA,NA,NA,NA,NA,NA,NA,NA,NA,NA,"",NA,NA,NA,NA,NA,NA,NA,"Fixed"
"197",NA,NA,"",NA,NA,"974490",1,"2025-03-25_11h48.28.273","Emotion.Memoire.2024","2024.1.5","Win32",2.608242045,6162.6956,6172.6741,6172.6745,6177.5451,5,2.126,1,4.8697,0,36,36,36,1,"IMAGES_EXP_mp4_40/FIXES/FIX-NEGATIF-mp4/Image9.mp4","DISTRACTEURS-40/DIST.ANIMÉES-20/10.NEUTRES/Dist.animee.neutre6.mp4","",NA,NA,"",NA,NA,NA,NA,"",NA,NA,NA,NA,NA,NA,NA,NA,NA,NA,"",NA,NA,NA,NA,NA,NA,NA,"Fixed"
"198",NA,NA,"",NA,NA,"974490",1,"2025-03-25_11h48.28.273","Emotion.Memoire.2024","2024.1.5","Win32",2.608242045,6177.5456,6187.4909,6187.4917,6191.6948,5,1.9163,3,4.1935,0,37,37,37,1,"IMAGES_EXP_mp4_40/FIXES/FIX-NEGATIF-mp4/Image7.mp4","IMAGES_EXP_mp4_40/FIXES/FIX-NEGATIF-mp4/Image8.mp4","",NA,NA,"",NA,NA,NA,NA,"",NA,NA,NA,NA,NA,NA,NA,NA,NA,NA,"",NA,NA,NA,NA,NA,NA,NA,"Fixed"
"199",NA,NA,"",NA,NA,"974490",1,"2025-03-25_11h48.28.273","Emotion.Memoire.2024","2024.1.5","Win32",2.608242045,6191.6954,6201.6951,6201.6958,6204.4785,1,1.358,7,2.7749,0,38,38,38,1,"IMAGES_EXP_mp4_40/ANIMEES/10- ANIMEES --NEGATIVES /Video6.mp4","IMAGES_EXP_mp4_40/FIXES/FIX-NEUTRE-mp4/image8.mp4","",NA,NA,"",NA,NA,NA,NA,"",NA,NA,NA,NA,NA,NA,NA,NA,NA,NA,"",NA,NA,NA,NA,NA,NA,NA,"Animated"
"200",NA,NA,"",NA,NA,"974490",1,"2025-03-25_11h48.28.273","Emotion.Memoire.2024","2024.1.5","Win32",2.608242045,6204.4791,6214.4784,6214.4788,6218.4449,1,1.9768,9,3.9609,0,39,39,39,1,"IMAGES_EXP_mp4_40/FIXES/FIX-NEUTRE-mp4/image1.mp4","IMAGES_EXP_mp4_40/ANIMEES/11-ANIMEES --- NEUTRES /video7.mp4","",NA,NA,"",NA,NA,NA,NA,"",NA,NA,NA,NA,NA,NA,NA,NA,NA,NA,"",NA,NA,NA,NA,NA,NA,NA,"Fixed"
"201",NA,NA,"",NA,NA,"001",1,"2024-12-21_14h10.58.110","Emotion.Memoire.2024","2024.1.5","Win32",59.52380952,88.285,95.2887,95.2889,111.9822,3,11.6856,2,16.6884,0,0,0,0,1,"IMAGES_EXP_mp4_40/FIXES/FIX-NEGATIF-mp4/Image6.mp4","DISTRACTEURS-40/DIST.ANIMÉES-20/10.NÉGATIFS/Dist.animee.negatif10.mp4","IMAGES_EXP_mp4_40/ANIMEES/10- ANIMEES --NEGATIVES /Video1.mp4",NA,NA,"",NA,NA,NA,NA,"",NA,NA,NA,NA,NA,NA,NA,NA,NA,NA,"",NA,NA,NA,NA,NA,NA,NA,"Fixed"
"202",NA,NA,"",NA,NA,"001",1,"2024-12-21_14h10.58.110","Emotion.Memoire.2024","2024.1.5","Win32",59.52380952,111.9825,118.9823,118.9824,129.3158,5,6.1067,1,10.3308,0,1,1,1,1,"IMAGES_EXP_mp4_40/FIXES/FIX-NEUTRE-mp4/image9.mp4","DISTRACTEURS-40/DIST.ANIMÉES-20/10.NEUTRES/Dist.animee.neutre3.mp4","DISTRACTEURS-40/DIST.FIXES-20/10.NÉGATIFS/Dist.fix.negatif3.mp4",NA,NA,"",NA,NA,NA,NA,"",NA,NA,NA,NA,NA,NA,NA,NA,NA,NA,"",NA,NA,NA,NA,NA,NA,NA,"Fixed"
"203",NA,NA,"",NA,NA,"001",1,"2024-12-21_14h10.58.110","Emotion.Memoire.2024","2024.1.5","Win32",59.52380952,129.316,129.3325,129.3326,150.2829,5,12.3809,1,20.9487,0,2,2,2,1,"IMAGES_EXP_mp4_40/FIXES/FIX-NEGATIF-mp4/Image3.mp4","IMAGES_EXP_mp4_40/ANIMEES/10- ANIMEES --NEGATIVES /Video2.mp4","DISTRACTEURS-40/DIST.FIXES-20/10.NÉGATIFS/Dist.fix.negatif5.mp4",NA,NA,"",NA,NA,NA,NA,"",NA,NA,NA,NA,NA,NA,NA,NA,NA,NA,"",NA,NA,NA,NA,NA,NA,NA,"Fixed"
"204",NA,NA,"",NA,NA,"001",1,"2024-12-21_14h10.58.110","Emotion.Memoire.2024","2024.1.5","Win32",59.52380952,150.283,150.3164,150.3165,164.3331,1,11.4866,1,14.0048,0,3,3,3,1,"IMAGES_EXP_mp4_40/FIXES/FIX-NEGATIF-mp4/Image4.mp4","IMAGES_EXP_mp4_40/FIXES/FIX-NEUTRE-mp4/image6.mp4","",NA,NA,"",NA,NA,NA,NA,"",NA,NA,NA,NA,NA,NA,NA,NA,NA,NA,"",NA,NA,NA,NA,NA,NA,NA,"Fixed"
"205",NA,NA,"",NA,NA,"001",1,"2024-12-21_14h10.58.110","Emotion.Memoire.2024","2024.1.5","Win32",59.52380952,164.3332,171.3335,171.3336,182.3835,5,6.9637,2,11.0383,0,4,4,4,1,"IMAGES_EXP_mp4_40/FIXES/FIX-NEGATIF-mp4/Image10.mp4","IMAGES_EXP_mp4_40/FIXES/FIX-NEUTRE-mp4/image2.mp4","",NA,NA,"",NA,NA,NA,NA,"",NA,NA,NA,NA,NA,NA,NA,NA,NA,NA,"",NA,NA,NA,NA,NA,NA,NA,"Fixed"
"206",NA,NA,"",NA,NA,"001",1,"2024-12-21_14h10.58.110","Emotion.Memoire.2024","2024.1.5","Win32",59.52380952,182.3837,189.3837,189.3839,202.3172,6,8.2974,2,12.9213,0,5,5,5,1,"IMAGES_EXP_mp4_40/ANIMEES/11-ANIMEES --- NEUTRES /video10.mp4","DISTRACTEURS-40/DIST.FIXES-20/10.NEUTRES /Dist.fix.neutre7.mp4","",NA,NA,"",NA,NA,NA,NA,"",NA,NA,NA,NA,NA,NA,NA,NA,NA,NA,"",NA,NA,NA,NA,NA,NA,NA,"Animated"
"207",NA,NA,"",NA,NA,"001",1,"2024-12-21_14h10.58.110","Emotion.Memoire.2024","2024.1.5","Win32",59.52380952,202.3173,207.8903,207.8903,214.6841,1,4.151,6,6.7909,0,6,6,6,1,"IMAGES_EXP_mp4_40/ANIMEES/10- ANIMEES --NEGATIVES /Video4.mp4","DISTRACTEURS-40/DIST.ANIMÉES-20/10.NÉGATIFS/Dist.animee.negatif4.mp4","",NA,NA,"",NA,NA,NA,NA,"",NA,NA,NA,NA,NA,NA,NA,NA,NA,NA,"",NA,NA,NA,NA,NA,NA,NA,"Animated"
"208",NA,NA,"",NA,NA,"001",1,"2024-12-21_14h10.58.110","Emotion.Memoire.2024","2024.1.5","Win32",59.52380952,214.6843,221.688,221.6882,230.8843,5,4.7834,2,9.1932,0,7,7,7,1,"IMAGES_EXP_mp4_40/FIXES/FIX-NEUTRE-mp4/image10.mp4","IMAGES_EXP_mp4_40/FIXES/FIX-NEGATIF-mp4/Image2.mp4","",NA,NA,"",NA,NA,NA,NA,"",NA,NA,NA,NA,NA,NA,NA,NA,NA,NA,"",NA,NA,NA,NA,NA,NA,NA,"Fixed"
"209",NA,NA,"",NA,NA,"001",1,"2024-12-21_14h10.58.110","Emotion.Memoire.2024","2024.1.5","Win32",59.52380952,230.8845,237.8845,237.8847,251.068,3,6.0927,5,13.1807,0,8,8,8,1,"IMAGES_EXP_mp4_40/ANIMEES/10- ANIMEES --NEGATIVES /Video1.mp4","IMAGES_EXP_mp4_40/FIXES/FIX-NEGATIF-mp4/Image9.mp4","",NA,NA,"",NA,NA,NA,NA,"",NA,NA,NA,NA,NA,NA,NA,NA,NA,NA,"",NA,NA,NA,NA,NA,NA,NA,"Animated"
"210",NA,NA,"",NA,NA,"001",1,"2024-12-21_14h10.58.110","Emotion.Memoire.2024","2024.1.5","Win32",59.52380952,251.0682,258.0682,258.0684,266.2517,5,6.0771,2,8.1811,0,9,9,9,1,"IMAGES_EXP_mp4_40/FIXES/FIX-NEUTRE-mp4/image4.mp4","DISTRACTEURS-40/DIST.FIXES-20/10.NEUTRES /Dist.fix.neutre8.mp4","",NA,NA,"",NA,NA,NA,NA,"",NA,NA,NA,NA,NA,NA,NA,NA,NA,NA,"",NA,NA,NA,NA,NA,NA,NA,"Fixed"
"211",NA,NA,"",NA,NA,"001",1,"2024-12-21_14h10.58.110","Emotion.Memoire.2024","2024.1.5","Win32",59.52380952,266.2519,273.2518,273.252,278.8519,5,2.3975,3,5.5974,0,10,10,10,1,"IMAGES_EXP_mp4_40/ANIMEES/11-ANIMEES --- NEUTRES /video6.mp4","DISTRACTEURS-40/DIST.ANIMÉES-20/10.NÉGATIFS/Dist.animee.negatif8.mp4","",NA,NA,"",NA,NA,NA,NA,"",NA,NA,NA,NA,NA,NA,NA,NA,NA,NA,"",NA,NA,NA,NA,NA,NA,NA,"Animated"
"212",NA,NA,"",NA,NA,"001",1,"2024-12-21_14h10.58.110","Emotion.Memoire.2024","2024.1.5","Win32",59.52380952,278.852,285.8429,285.843,292.0688,4,2.9343,3,6.2224,0,11,11,11,1,"IMAGES_EXP_mp4_40/ANIMEES/11-ANIMEES --- NEUTRES /video9.mp4","IMAGES_EXP_mp4_40/ANIMEES/11-ANIMEES --- NEUTRES /video8.mp4","",NA,NA,"",NA,NA,NA,NA,"",NA,NA,NA,NA,NA,NA,NA,NA,NA,NA,"",NA,NA,NA,NA,NA,NA,NA,"Animated"
"213",NA,NA,"",NA,NA,"001",1,"2024-12-21_14h10.58.110","Emotion.Memoire.2024","2024.1.5","Win32",59.52380952,292.069,299.0568,299.0569,305.7563,6,2.448,1,6.6988,0,12,12,12,1,"IMAGES_EXP_mp4_40/FIXES/FIX-NEUTRE-mp4/image8.mp4","IMAGES_EXP_mp4_40/ANIMEES/10- ANIMEES --NEGATIVES /Video8.mp4","",NA,NA,"",NA,NA,NA,NA,"",NA,NA,NA,NA,NA,NA,NA,NA,NA,NA,"",NA,NA,NA,NA,NA,NA,NA,"Fixed"
"214",NA,NA,"",NA,NA,"001",1,"2024-12-21_14h10.58.110","Emotion.Memoire.2024","2024.1.5","Win32",59.52380952,305.7565,312.7577,312.7577,323.0361,4,7.8657,4,10.2755,0,13,13,13,1,"IMAGES_EXP_mp4_40/ANIMEES/11-ANIMEES --- NEUTRES /video5.mp4","DISTRACTEURS-40/DIST.FIXES-20/10.NÉGATIFS/Dist.fix.negatif8.mp4","",NA,NA,"",NA,NA,NA,NA,"",NA,NA,NA,NA,NA,NA,NA,NA,NA,NA,"",NA,NA,NA,NA,NA,NA,NA,"Animated"
"215",NA,NA,"",NA,NA,"001",1,"2024-12-21_14h10.58.110","Emotion.Memoire.2024","2024.1.5","Win32",59.52380952,323.0362,330.0405,330.0407,339.906,5,7.737,2,9.8649,0,14,14,14,1,"IMAGES_EXP_mp4_40/ANIMEES/11-ANIMEES --- NEUTRES /video1.mp4","DISTRACTEURS-40/DIST.FIXES-20/10.NEUTRES /Dist.fix.neutre2.mp4","",NA,NA,"",NA,NA,NA,NA,"",NA,NA,NA,NA,NA,NA,NA,NA,NA,NA,"",NA,NA,NA,NA,NA,NA,NA,"Animated"
"216",NA,NA,"",NA,NA,"001",1,"2024-12-21_14h10.58.110","Emotion.Memoire.2024","2024.1.5","Win32",59.52380952,339.9062,346.9087,346.9088,354.5868,3,3.8305,3,7.6767,0,15,15,15,1,"IMAGES_EXP_mp4_40/ANIMEES/10- ANIMEES --NEGATIVES /Video9.mp4","DISTRACTEURS-40/DIST.ANIMÉES-20/10.NEUTRES/Dist.animee.neutre10.mp4","",NA,NA,"",NA,NA,NA,NA,"",NA,NA,NA,NA,NA,NA,NA,NA,NA,NA,"",NA,NA,NA,NA,NA,NA,NA,"Animated"
"217",NA,NA,"",NA,NA,"001",1,"2024-12-21_14h10.58.110","Emotion.Memoire.2024","2024.1.5","Win32",59.52380952,354.5869,361.5927,361.5928,371.1067,4,6.7488,3,9.5134,0,16,16,16,1,"IMAGES_EXP_mp4_40/ANIMEES/10- ANIMEES --NEGATIVES /Video8.mp4","DISTRACTEURS-40/DIST.FIXES-20/10.NEUTRES /Dist.fix.neutre5.mp4","",NA,NA,"",NA,NA,NA,NA,"",NA,NA,NA,NA,NA,NA,NA,NA,NA,NA,"",NA,NA,NA,NA,NA,NA,NA,"Animated"
"218",NA,NA,"",NA,NA,"001",1,"2024-12-21_14h10.58.110","Emotion.Memoire.2024","2024.1.5","Win32",59.52380952,371.1068,371.1747,371.1747,393.9207,5,21.451,5,22.7388,0,17,17,17,1,"IMAGES_EXP_mp4_40/FIXES/FIX-NEGATIF-mp4/Image5.mp4","DISTRACTEURS-40/DIST.ANIMÉES-20/10.NEUTRES/Dist.animee.neutre1.mp4","",NA,NA,"",NA,NA,NA,NA,"",NA,NA,NA,NA,NA,NA,NA,NA,NA,NA,"",NA,NA,NA,NA,NA,NA,NA,"Fixed"
"219",NA,NA,"",NA,NA,"001",1,"2024-12-21_14h10.58.110","Emotion.Memoire.2024","2024.1.5","Win32",59.52380952,393.9208,400.9087,400.9088,409.5545,4,6.485,2,8.6449,0,18,18,18,1,"IMAGES_EXP_mp4_40/ANIMEES/11-ANIMEES --- NEUTRES /video2.mp4","IMAGES_EXP_mp4_40/FIXES/FIX-NEUTRE-mp4/image5.mp4","",NA,NA,"",NA,NA,NA,NA,"",NA,NA,NA,NA,NA,NA,NA,NA,NA,NA,"",NA,NA,NA,NA,NA,NA,NA,"Animated"
"220",NA,NA,"",NA,NA,"001",1,"2024-12-21_14h10.58.110","Emotion.Memoire.2024","2024.1.5","Win32",59.52380952,409.5546,416.5425,416.5426,423.0546,6,4.0192,3,6.5071,0,19,19,19,1,"IMAGES_EXP_mp4_40/ANIMEES/10- ANIMEES --NEGATIVES /Video7.mp4","IMAGES_EXP_mp4_40/FIXES/FIX-NEUTRE-mp4/image7.mp4","",NA,NA,"",NA,NA,NA,NA,"",NA,NA,NA,NA,NA,NA,NA,NA,NA,NA,"",NA,NA,NA,NA,NA,NA,NA,"Animated"
"221",NA,NA,"",NA,NA,"001",1,"2024-12-21_14h10.58.110","Emotion.Memoire.2024","2024.1.5","Win32",59.52380952,423.0547,430.0549,430.0551,436.5271,6,3.9945,3,6.4715,0,20,20,20,1,"IMAGES_EXP_mp4_40/FIXES/FIX-NEUTRE-mp4/image5.mp4","IMAGES_EXP_mp4_40/ANIMEES/10- ANIMEES --NEGATIVES /Video10.mp4","",NA,NA,"",NA,NA,NA,NA,"",NA,NA,NA,NA,NA,NA,NA,NA,NA,NA,"",NA,NA,NA,NA,NA,NA,NA,"Fixed"
"222",NA,NA,"",NA,NA,"001",1,"2024-12-21_14h10.58.110","Emotion.Memoire.2024","2024.1.5","Win32",59.52380952,436.5272,443.5265,443.5267,450.4887,5,3.2809,1,6.95,0,21,21,21,1,"IMAGES_EXP_mp4_40/ANIMEES/11-ANIMEES --- NEUTRES /video3.mp4","IMAGES_EXP_mp4_40/ANIMEES/10- ANIMEES --NEGATIVES /Video4.mp4","",NA,NA,"",NA,NA,NA,NA,"",NA,NA,NA,NA,NA,NA,NA,NA,NA,NA,"",NA,NA,NA,NA,NA,NA,NA,"Animated"
"223",NA,NA,"",NA,NA,"001",1,"2024-12-21_14h10.58.110","Emotion.Memoire.2024","2024.1.5","Win32",59.52380952,450.4888,457.4764,457.4766,464.0055,5,4.0313,6,6.5184,0,22,22,22,1,"IMAGES_EXP_mp4_40/ANIMEES/10- ANIMEES --NEGATIVES /Video5.mp4","IMAGES_EXP_mp4_40/ANIMEES/10- ANIMEES --NEGATIVES /Video5.mp4","",NA,NA,"",NA,NA,NA,NA,"",NA,NA,NA,NA,NA,NA,NA,NA,NA,NA,"",NA,NA,NA,NA,NA,NA,NA,"Animated"
"224",NA,NA,"",NA,NA,"001",1,"2024-12-21_14h10.58.110","Emotion.Memoire.2024","2024.1.5","Win32",59.52380952,464.0057,470.7753,470.7755,475.4773,4,3.3704,3,4.7013,0,23,23,23,1,"IMAGES_EXP_mp4_40/ANIMEES/11-ANIMEES --- NEUTRES /video7.mp4","IMAGES_EXP_mp4_40/ANIMEES/11-ANIMEES --- NEUTRES /video6.mp4","",NA,NA,"",NA,NA,NA,NA,"",NA,NA,NA,NA,NA,NA,NA,NA,NA,NA,"",NA,NA,NA,NA,NA,NA,NA,"Animated"
"225",NA,NA,"",NA,NA,"001",1,"2024-12-21_14h10.58.110","Emotion.Memoire.2024","2024.1.5","Win32",59.52380952,475.4774,482.4776,482.4777,488.0392,4,3.5814,4,5.556,0,24,24,24,1,"IMAGES_EXP_mp4_40/FIXES/FIX-NEGATIF-mp4/Image8.mp4","IMAGES_EXP_mp4_40/ANIMEES/11-ANIMEES --- NEUTRES /video5.mp4","",NA,NA,"",NA,NA,NA,NA,"",NA,NA,NA,NA,NA,NA,NA,NA,NA,NA,"",NA,NA,NA,NA,NA,NA,NA,"Fixed"
"226",NA,NA,"",NA,NA,"001",1,"2024-12-21_14h10.58.110","Emotion.Memoire.2024","2024.1.5","Win32",59.52380952,488.0393,490.1106,490.1107,497.9894,3,6.2661,6,7.8751,0,25,25,25,1,"IMAGES_EXP_mp4_40/FIXES/FIX-NEGATIF-mp4/Image2.mp4","DISTRACTEURS-40/DIST.ANIMÉES-20/10.NÉGATIFS/Dist.animee.negatif5.mp4","",NA,NA,"",NA,NA,NA,NA,"",NA,NA,NA,NA,NA,NA,NA,NA,NA,NA,"",NA,NA,NA,NA,NA,NA,NA,"Fixed"
"227",NA,NA,"",NA,NA,"001",1,"2024-12-21_14h10.58.110","Emotion.Memoire.2024","2024.1.5","Win32",59.52380952,497.9895,504.9896,504.9896,508.7896,5,1.8858,2,3.7885,0,26,26,26,1,"IMAGES_EXP_mp4_40/FIXES/FIX-NEUTRE-mp4/image7.mp4","DISTRACTEURS-40/DIST.ANIMÉES-20/10.NEUTRES/Dist.animee.neutre4.mp4","",NA,NA,"",NA,NA,NA,NA,"",NA,NA,NA,NA,NA,NA,NA,NA,NA,NA,"",NA,NA,NA,NA,NA,NA,NA,"Fixed"
"228",NA,NA,"",NA,NA,"001",1,"2024-12-21_14h10.58.110","Emotion.Memoire.2024","2024.1.5","Win32",59.52380952,508.7897,515.7949,515.795,521.1114,7,2.7187,3,5.316,0,27,27,27,1,"IMAGES_EXP_mp4_40/ANIMEES/11-ANIMEES --- NEUTRES /video4.mp4","DISTRACTEURS-40/DIST.FIXES-20/10.NEUTRES /Dist.fix.neutre10.mp4","",NA,NA,"",NA,NA,NA,NA,"",NA,NA,NA,NA,NA,NA,NA,NA,NA,NA,"",NA,NA,NA,NA,NA,NA,NA,"Animated"
"229",NA,NA,"",NA,NA,"001",1,"2024-12-21_14h10.58.110","Emotion.Memoire.2024","2024.1.5","Win32",59.52380952,521.1116,523.2122,523.2123,529.1233,3,4.6055,5,5.9094,0,28,28,28,1,"IMAGES_EXP_mp4_40/FIXES/FIX-NEGATIF-mp4/Image1.mp4","IMAGES_EXP_mp4_40/FIXES/FIX-NEGATIF-mp4/Image3.mp4","",NA,NA,"",NA,NA,NA,NA,"",NA,NA,NA,NA,NA,NA,NA,NA,NA,NA,"",NA,NA,NA,NA,NA,NA,NA,"Fixed"
"230",NA,NA,"",NA,NA,"001",1,"2024-12-21_14h10.58.110","Emotion.Memoire.2024","2024.1.5","Win32",59.52380952,529.1233,536.112,536.1122,540.7626,5,3.3323,3,4.6498,0,29,29,29,1,"IMAGES_EXP_mp4_40/ANIMEES/10- ANIMEES --NEGATIVES /Video10.mp4","DISTRACTEURS-40/DIST.FIXES-20/10.NÉGATIFS/Dist.fix.negatif6.mp4","",NA,NA,"",NA,NA,NA,NA,"",NA,NA,NA,NA,NA,NA,NA,NA,NA,NA,"",NA,NA,NA,NA,NA,NA,NA,"Animated"
"231",NA,NA,"",NA,NA,"001",1,"2024-12-21_14h10.58.110","Emotion.Memoire.2024","2024.1.5","Win32",59.52380952,540.7627,547.7631,547.7632,555.7454,7,3.4545,6,7.9816,0,30,30,30,1,"IMAGES_EXP_mp4_40/ANIMEES/11-ANIMEES --- NEUTRES /video8.mp4","IMAGES_EXP_mp4_40/ANIMEES/11-ANIMEES --- NEUTRES /video1.mp4","",NA,NA,"",NA,NA,NA,NA,"",NA,NA,NA,NA,NA,NA,NA,NA,NA,NA,"",NA,NA,NA,NA,NA,NA,NA,"Animated"
"232",NA,NA,"",NA,NA,"001",1,"2024-12-21_14h10.58.110","Emotion.Memoire.2024","2024.1.5","Win32",59.52380952,555.7456,562.745,562.745,568.7074,6,4.1316,3,5.9608,0,31,31,31,1,"IMAGES_EXP_mp4_40/FIXES/FIX-NEUTRE-mp4/image6.mp4","IMAGES_EXP_mp4_40/FIXES/FIX-NEUTRE-mp4/image9.mp4","",NA,NA,"",NA,NA,NA,NA,"",NA,NA,NA,NA,NA,NA,NA,NA,NA,NA,"",NA,NA,NA,NA,NA,NA,NA,"Fixed"
"233",NA,NA,"",NA,NA,"001",1,"2024-12-21_14h10.58.110","Emotion.Memoire.2024","2024.1.5","Win32",59.52380952,568.7075,575.6968,575.697,584.3109,3,4.9132,3,8.6133,0,32,32,32,1,"IMAGES_EXP_mp4_40/ANIMEES/10- ANIMEES --NEGATIVES /Video2.mp4","IMAGES_EXP_mp4_40/ANIMEES/10- ANIMEES --NEGATIVES /Video6.mp4","",NA,NA,"",NA,NA,NA,NA,"",NA,NA,NA,NA,NA,NA,NA,NA,NA,NA,"",NA,NA,NA,NA,NA,NA,NA,"Animated"
"234",NA,NA,"",NA,NA,"001",1,"2024-12-21_14h10.58.110","Emotion.Memoire.2024","2024.1.5","Win32",59.52380952,584.311,591.3016,591.3017,595.1412,4,2.462,2,3.8341,0,33,33,33,1,"IMAGES_EXP_mp4_40/ANIMEES/10- ANIMEES --NEGATIVES /Video3.mp4","IMAGES_EXP_mp4_40/ANIMEES/11-ANIMEES --- NEUTRES /video3.mp4","",NA,NA,"",NA,NA,NA,NA,"",NA,NA,NA,NA,NA,NA,NA,NA,NA,NA,"",NA,NA,NA,NA,NA,NA,NA,"Animated"
"235",NA,NA,"",NA,NA,"001",1,"2024-12-21_14h10.58.110","Emotion.Memoire.2024","2024.1.5","Win32",59.52380952,595.1413,602.1413,602.1414,607.0913,5,2.4201,3,4.9484,0,34,34,34,1,"IMAGES_EXP_mp4_40/FIXES/FIX-NEUTRE-mp4/image2.mp4","DISTRACTEURS-40/DIST.ANIMÉES-20/10.NÉGATIFS/Dist.animee.negatif7.mp4","",NA,NA,"",NA,NA,NA,NA,"",NA,NA,NA,NA,NA,NA,NA,NA,NA,NA,"",NA,NA,NA,NA,NA,NA,NA,"Fixed"
"236",NA,NA,"",NA,NA,"001",1,"2024-12-21_14h10.58.110","Emotion.Memoire.2024","2024.1.5","Win32",59.52380952,607.0915,614.0798,614.0799,617.6784,5,1.9059,1,3.5978,0,35,35,35,1,"IMAGES_EXP_mp4_40/FIXES/FIX-NEUTRE-mp4/image3.mp4","IMAGES_EXP_mp4_40/ANIMEES/11-ANIMEES --- NEUTRES /video9.mp4","",NA,NA,"",NA,NA,NA,NA,"",NA,NA,NA,NA,NA,NA,NA,NA,NA,NA,"",NA,NA,NA,NA,NA,NA,NA,"Fixed"
"237",NA,NA,"",NA,NA,"001",1,"2024-12-21_14h10.58.110","Emotion.Memoire.2024","2024.1.5","Win32",59.52380952,617.6785,624.679,624.6792,628.0918,3,1.8026,4,3.4028,0,36,36,36,1,"IMAGES_EXP_mp4_40/FIXES/FIX-NEGATIF-mp4/Image9.mp4","DISTRACTEURS-40/DIST.ANIMÉES-20/10.NEUTRES/Dist.animee.neutre6.mp4","",NA,NA,"",NA,NA,NA,NA,"",NA,NA,NA,NA,NA,NA,NA,NA,NA,NA,"",NA,NA,NA,NA,NA,NA,NA,"Fixed"
"238",NA,NA,"",NA,NA,"001",1,"2024-12-21_14h10.58.110","Emotion.Memoire.2024","2024.1.5","Win32",59.52380952,628.0919,635.0805,635.0806,641.8654,3,4.7152,3,6.7843,0,37,37,37,1,"IMAGES_EXP_mp4_40/FIXES/FIX-NEGATIF-mp4/Image7.mp4","IMAGES_EXP_mp4_40/FIXES/FIX-NEGATIF-mp4/Image8.mp4","",NA,NA,"",NA,NA,NA,NA,"",NA,NA,NA,NA,NA,NA,NA,NA,NA,NA,"",NA,NA,NA,NA,NA,NA,NA,"Fixed"
"239",NA,NA,"",NA,NA,"001",1,"2024-12-21_14h10.58.110","Emotion.Memoire.2024","2024.1.5","Win32",59.52380952,641.8656,648.8657,648.8658,653.3422,1,2.2141,6,4.4721,0,38,38,38,1,"IMAGES_EXP_mp4_40/ANIMEES/10- ANIMEES --NEGATIVES /Video6.mp4","IMAGES_EXP_mp4_40/FIXES/FIX-NEUTRE-mp4/image8.mp4","",NA,NA,"",NA,NA,NA,NA,"",NA,NA,NA,NA,NA,NA,NA,NA,NA,NA,"",NA,NA,NA,NA,NA,NA,NA,"Animated"
"240",NA,NA,"",NA,NA,"001",1,"2024-12-21_14h10.58.110","Emotion.Memoire.2024","2024.1.5","Win32",59.52380952,653.3424,660.3425,660.3426,664.8987,5,3.769,1,4.5557,0,39,39,39,1,"IMAGES_EXP_mp4_40/FIXES/FIX-NEUTRE-mp4/image1.mp4","IMAGES_EXP_mp4_40/ANIMEES/11-ANIMEES --- NEUTRES /video7.mp4","",NA,NA,"",NA,NA,NA,NA,"",NA,NA,NA,NA,NA,NA,NA,NA,NA,NA,"",NA,NA,NA,NA,NA,NA,NA,"Fixed"
"241",NA,NA,"",NA,NA,"002",1,"2025-01-09_14h32.30.407","Emotion.Memoire.2024","2024.1.5","Win32",60.24096386,53.5264,63.5188,63.5191,84.2682,5,9.9428,1,20.7397,0,0,0,0,1,"IMAGES_EXP_mp4_40/FIXES/FIX-NEGATIF-mp4/Image6.mp4","DISTRACTEURS-40/DIST.ANIMÉES-20/10.NÉGATIFS/Dist.animee.negatif10.mp4","IMAGES_EXP_mp4_40/ANIMEES/10- ANIMEES --NEGATIVES /Video1.mp4",NA,NA,"",NA,NA,NA,NA,"",NA,NA,NA,NA,NA,NA,NA,NA,NA,NA,"",NA,NA,NA,NA,NA,NA,NA,"Fixed"
"242",NA,NA,"",NA,NA,"002",1,"2025-01-09_14h32.30.407","Emotion.Memoire.2024","2024.1.5","Win32",60.24096386,84.2693,94.2708,94.2709,121.3166,5,8.6876,1,27.0343,0,1,1,1,1,"IMAGES_EXP_mp4_40/FIXES/FIX-NEUTRE-mp4/image9.mp4","DISTRACTEURS-40/DIST.ANIMÉES-20/10.NEUTRES/Dist.animee.neutre3.mp4","DISTRACTEURS-40/DIST.FIXES-20/10.NÉGATIFS/Dist.fix.negatif3.mp4",NA,NA,"",NA,NA,NA,NA,"",NA,NA,NA,NA,NA,NA,NA,NA,NA,NA,"",NA,NA,NA,NA,NA,NA,NA,"Fixed"
"243",NA,NA,"",NA,NA,"002",1,"2025-01-09_14h32.30.407","Emotion.Memoire.2024","2024.1.5","Win32",60.24096386,121.317,131.3159,131.3171,147.8987,2,7.0134,6,16.5781,0,2,2,2,1,"IMAGES_EXP_mp4_40/FIXES/FIX-NEGATIF-mp4/Image3.mp4","IMAGES_EXP_mp4_40/ANIMEES/10- ANIMEES --NEGATIVES /Video2.mp4","DISTRACTEURS-40/DIST.FIXES-20/10.NÉGATIFS/Dist.fix.negatif5.mp4",NA,NA,"",NA,NA,NA,NA,"",NA,NA,NA,NA,NA,NA,NA,NA,NA,NA,"",NA,NA,NA,NA,NA,NA,NA,"Fixed"
"244",NA,NA,"",NA,NA,"002",1,"2025-01-09_14h32.30.407","Emotion.Memoire.2024","2024.1.5","Win32",60.24096386,147.8992,157.902,157.9022,172.8812,3,9.4326,4,14.9686,0,3,3,3,1,"IMAGES_EXP_mp4_40/FIXES/FIX-NEGATIF-mp4/Image4.mp4","IMAGES_EXP_mp4_40/FIXES/FIX-NEUTRE-mp4/image6.mp4","",NA,NA,"",NA,NA,NA,NA,"",NA,NA,NA,NA,NA,NA,NA,NA,NA,NA,"",NA,NA,NA,NA,NA,NA,NA,"Fixed"
"245",NA,NA,"",NA,NA,"002",1,"2025-01-09_14h32.30.407","Emotion.Memoire.2024","2024.1.5","Win32",60.24096386,172.8817,182.8807,182.881,190.28,4,5.5565,2,7.3921,0,4,4,4,1,"IMAGES_EXP_mp4_40/FIXES/FIX-NEGATIF-mp4/Image10.mp4","IMAGES_EXP_mp4_40/FIXES/FIX-NEUTRE-mp4/image2.mp4","",NA,NA,"",NA,NA,NA,NA,"",NA,NA,NA,NA,NA,NA,NA,NA,NA,NA,"",NA,NA,NA,NA,NA,NA,NA,"Fixed"
"246",NA,NA,"",NA,NA,"002",1,"2025-01-09_14h32.30.407","Emotion.Memoire.2024","2024.1.5","Win32",60.24096386,190.2804,200.2296,200.2296,207.596,6,5.2715,1,7.3578,0,5,5,5,1,"IMAGES_EXP_mp4_40/ANIMEES/11-ANIMEES --- NEUTRES /video10.mp4","DISTRACTEURS-40/DIST.FIXES-20/10.NEUTRES /Dist.fix.neutre7.mp4","",NA,NA,"",NA,NA,NA,NA,"",NA,NA,NA,NA,NA,NA,NA,NA,NA,NA,"",NA,NA,NA,NA,NA,NA,NA,"Animated"
"247",NA,NA,"",NA,NA,"002",1,"2025-01-09_14h32.30.407","Emotion.Memoire.2024","2024.1.5","Win32",60.24096386,207.5964,217.596,217.5964,221.9955,5,2.7723,1,4.389,0,6,6,6,1,"IMAGES_EXP_mp4_40/ANIMEES/10- ANIMEES --NEGATIVES /Video4.mp4","DISTRACTEURS-40/DIST.ANIMÉES-20/10.NÉGATIFS/Dist.animee.negatif4.mp4","",NA,NA,"",NA,NA,NA,NA,"",NA,NA,NA,NA,NA,NA,NA,NA,NA,NA,"",NA,NA,NA,NA,NA,NA,NA,"Animated"
"248",NA,NA,"",NA,NA,"002",1,"2025-01-09_14h32.30.407","Emotion.Memoire.2024","2024.1.5","Win32",60.24096386,221.9964,231.998,231.9983,236.7284,5,3.3529,1,4.7226,0,7,7,7,1,"IMAGES_EXP_mp4_40/FIXES/FIX-NEUTRE-mp4/image10.mp4","IMAGES_EXP_mp4_40/FIXES/FIX-NEGATIF-mp4/Image2.mp4","",NA,NA,"",NA,NA,NA,NA,"",NA,NA,NA,NA,NA,NA,NA,NA,NA,NA,"",NA,NA,NA,NA,NA,NA,NA,"Fixed"
"249",NA,NA,"",NA,NA,"002",1,"2025-01-09_14h32.30.407","Emotion.Memoire.2024","2024.1.5","Win32",60.24096386,236.7288,246.5779,246.5781,260.8771,3,10.1025,1,14.2886,0,8,8,8,1,"IMAGES_EXP_mp4_40/ANIMEES/10- ANIMEES --NEGATIVES /Video1.mp4","IMAGES_EXP_mp4_40/FIXES/FIX-NEGATIF-mp4/Image9.mp4","",NA,NA,"",NA,NA,NA,NA,"",NA,NA,NA,NA,NA,NA,NA,NA,NA,NA,"",NA,NA,NA,NA,NA,NA,NA,"Animated"
"250",NA,NA,"",NA,NA,"002",1,"2025-01-09_14h32.30.407","Emotion.Memoire.2024","2024.1.5","Win32",60.24096386,260.8778,270.877,270.8776,279.1264,4,5.059,1,8.2411,0,9,9,9,1,"IMAGES_EXP_mp4_40/FIXES/FIX-NEUTRE-mp4/image4.mp4","DISTRACTEURS-40/DIST.FIXES-20/10.NEUTRES /Dist.fix.neutre8.mp4","",NA,NA,"",NA,NA,NA,NA,"",NA,NA,NA,NA,NA,NA,NA,NA,NA,NA,"",NA,NA,NA,NA,NA,NA,NA,"Fixed"
"251",NA,NA,"",NA,NA,"002",1,"2025-01-09_14h32.30.407","Emotion.Memoire.2024","2024.1.5","Win32",60.24096386,279.1269,289.128,289.1281,298.7921,6,4.7527,2,9.6586,0,10,10,10,1,"IMAGES_EXP_mp4_40/ANIMEES/11-ANIMEES --- NEUTRES /video6.mp4","DISTRACTEURS-40/DIST.ANIMÉES-20/10.NÉGATIFS/Dist.animee.negatif8.mp4","",NA,NA,"",NA,NA,NA,NA,"",NA,NA,NA,NA,NA,NA,NA,NA,NA,NA,"",NA,NA,NA,NA,NA,NA,NA,"Animated"
"252",NA,NA,"",NA,NA,"002",1,"2025-01-09_14h32.30.407","Emotion.Memoire.2024","2024.1.5","Win32",60.24096386,298.7926,308.7919,308.7923,316.6753,5,4.3569,2,7.8712,0,11,11,11,1,"IMAGES_EXP_mp4_40/ANIMEES/11-ANIMEES --- NEUTRES /video9.mp4","IMAGES_EXP_mp4_40/ANIMEES/11-ANIMEES --- NEUTRES /video8.mp4","",NA,NA,"",NA,NA,NA,NA,"",NA,NA,NA,NA,NA,NA,NA,NA,NA,NA,"",NA,NA,NA,NA,NA,NA,NA,"Animated"
