"","Consigne.started","Consigne.stopped","Key_resp1.keys","Key_resp1.rt","Key_resp1.duration","participant","session","date","expName","psychopyVersion","OS","frameRate","IMAGES.started","IMAGES.stopped","SAM.started","SAM.stopped","Plaisir.response","Plaisir.rt","EVEIL.response","EVEIL.rt","trials.thisRepN","trials.thisTrialN","trials.thisN","trials.thisIndex","trials.ran","ImageFile","ImagesDistracteursFile","Test","Calcul.started","Calcul.stopped","Key_response.keys","Key_response.rt","Key_response.duration","Consigne_reco.started","Consigne_reco.stopped","key_resp_reconn.keys","key_resp_reconn.rt","key_resp_reconn.duration","DISTRACTEURS.started","DISTRACTEURS.stopped","mouse.x","mouse.y","mouse.leftButton","mouse.midButton","mouse.rightButton","mouse.time","mouse.clicked_name","trials_2.thisRepN","trials_2.thisTrialN","trials_2.thisN","trials_2.thisIndex","trials_2.ran","MERCI.started","MERCI.stopped","condition","is_distractor","correct"
"1",NA,NA,"",NA,NA,"452363",1,"2024-12-27_15h02.45.941","Emotion.Memoire.2024","2024.1.5","MacIntel",30.3030303,NA,NA,NA,NA,NA,NA,NA,NA,NA,NA,NA,NA,NA,"IMAGES_EXP_mp4_40/FIXES/FIX-NEGATIF-mp4/Image6.mp4","IMAGES_EXP_mp4_40/ANIMEES/10- ANIMEES --NEGATIVES /Video2.mp4","DISTRACTEURS-40/DIST.FIXES-20/10.NÉGATIFS/Dist.fix.negatif5.mp4",NA,NA,"",NA,NA,NA,NA,"",NA,NA,1935.403,1937.269,0.457777778,-0.287777778,1,0,0,1.856,"Vrai",0,2,2,2,1,NA,NA,"Animated",FALSE,1
"2",NA,NA,"",NA,NA,"452363",1,"2024-12-27_15h02.45.941","Emotion.Memoire.2024","2024.1.5","MacIntel",30.3030303,NA,NA,NA,NA,NA,NA,NA,NA,NA,NA,NA,NA,NA,"IMAGES_EXP_mp4_40/FIXES/FIX-NEGATIF-mp4/Image4.mp4","IMAGES_EXP_mp4_40/FIXES/FIX-NEUTRE-mp4/image6.mp4","",NA,NA,"",NA,NA,NA,NA,"",NA,NA,1937.271,1938.536,0.448888889,-0.268888889,1,0,0,1.259,"Vrai",0,3,3,3,1,NA,NA,"Fixed",FALSE,1
"3",NA,NA,"",NA,NA,"452363",1,"2024-12-27_15h02.45.941","Emotion.Memoire.2024","2024.1.5","MacIntel",30.3030303,NA,NA,NA,NA,NA,NA,NA,NA,NA,NA,NA,NA,NA,"IMAGES_EXP_mp4_40/FIXES/FIX-NEGATIF-mp4/Image10.mp4","IMAGES_EXP_mp4_40/FIXES/FIX-NEUTRE-mp4/image2.mp4","",NA,NA,"",NA,NA,NA,NA,"",NA,NA,1938.538,1939.503,0.451111111,-0.271111111,1,0,0,0.959,"Vrai",0,4,4,4,1,NA,NA,"Fixed",FALSE,1
"4",NA,NA,"",NA,NA,"452363",1,"2024-12-27_15h02.45.941","Emotion.Memoire.2024","2024.1.5","MacIntel",30.3030303,NA,NA,NA,NA,NA,NA,NA,NA,NA,NA,NA,NA,NA,"IMAGES_EXP_mp4_40/ANIMEES/11-ANIMEES --- NEUTRES /video10.mp4","DISTRACTEURS-40/DIST.FIXES-20/10.NEUTRES /Dist.fix.neutre7.mp4","",NA,NA,"",NA,NA,NA,NA,"",NA,NA,1939.505,1941.887,-0.498888889,-0.295555556,1,0,0,2.375,"Faux",0,5,5,5,1,NA,NA,"Fixed",TRUE,1
"5",NA,NA,"",NA,NA,"452363",1,"2024-12-27_15h02.45.941","Emotion.Memoire.2024","2024.1.5","MacIntel",30.3030303,NA,NA,NA,NA,NA,NA,NA,NA,NA,NA,NA,NA,NA,"IMAGES_EXP_mp4_40/FIXES/FIX-NEUTRE-mp4/image10.mp4","IMAGES_EXP_mp4_40/FIXES/FIX-NEGATIF-mp4/Image2.mp4","",NA,NA,"",NA,NA,NA,NA,"",NA,NA,1945.303,1946.888,0.445555556,-0.278888889,1,0,0,1.573,"Vrai",0,7,7,7,1,NA,NA,"Fixed",FALSE,1
"6",NA,NA,"",NA,NA,"452363",1,"2024-12-27_15h02.45.941","Emotion.Memoire.2024","2024.1.5","MacIntel",30.3030303,NA,NA,NA,NA,NA,NA,NA,NA,NA,NA,NA,NA,NA,"IMAGES_EXP_mp4_40/ANIMEES/10- ANIMEES --NEGATIVES /Video1.mp4","IMAGES_EXP_mp4_40/FIXES/FIX-NEGATIF-mp4/Image9.mp4","",NA,NA,"",NA,NA,NA,NA,"",NA,NA,1946.889,1949.253,0.465555556,-0.28,1,0,0,2.358,"Vrai",0,8,8,8,1,NA,NA,"Fixed",FALSE,1
"7",NA,NA,"",NA,NA,"452363",1,"2024-12-27_15h02.45.941","Emotion.Memoire.2024","2024.1.5","MacIntel",30.3030303,NA,NA,NA,NA,NA,NA,NA,NA,NA,NA,NA,NA,NA,"IMAGES_EXP_mp4_40/FIXES/FIX-NEUTRE-mp4/image4.mp4","DISTRACTEURS-40/DIST.FIXES-20/10.NEUTRES /Dist.fix.neutre8.mp4","",NA,NA,"",NA,NA,NA,NA,"",NA,NA,1949.253,1951.601,-0.498888889,-0.302222222,1,0,0,2.33,"Faux",0,9,9,9,1,NA,NA,"Fixed",TRUE,1
"8",NA,NA,"",NA,NA,"452363",1,"2024-12-27_15h02.45.941","Emotion.Memoire.2024","2024.1.5","MacIntel",30.3030303,NA,NA,NA,NA,NA,NA,NA,NA,NA,NA,NA,NA,NA,"IMAGES_EXP_mp4_40/ANIMEES/11-ANIMEES --- NEUTRES /video9.mp4","IMAGES_EXP_mp4_40/ANIMEES/11-ANIMEES --- NEUTRES /video8.mp4","",NA,NA,"",NA,NA,NA,NA,"",NA,NA,1953.92,1955.318,0.49,-0.29,1,0,0,1.391,"Vrai",0,11,11,11,1,NA,NA,"Animated",FALSE,1
"9",NA,NA,"",NA,NA,"452363",1,"2024-12-27_15h02.45.941","Emotion.Memoire.2024","2024.1.5","MacIntel",30.3030303,NA,NA,NA,NA,NA,NA,NA,NA,NA,NA,NA,NA,NA,"IMAGES_EXP_mp4_40/FIXES/FIX-NEUTRE-mp4/image8.mp4","IMAGES_EXP_mp4_40/ANIMEES/10- ANIMEES --NEGATIVES /Video8.mp4","",NA,NA,"",NA,NA,NA,NA,"",NA,NA,1955.319,1956.387,0.491111111,-0.29,1,0,0,1.06,"Vrai",0,12,12,12,1,NA,NA,"Animated",FALSE,1
"10",NA,NA,"",NA,NA,"452363",1,"2024-12-27_15h02.45.941","Emotion.Memoire.2024","2024.1.5","MacIntel",30.3030303,NA,NA,NA,NA,NA,NA,NA,NA,NA,NA,NA,NA,NA,"IMAGES_EXP_mp4_40/ANIMEES/11-ANIMEES --- NEUTRES /video5.mp4","DISTRACTEURS-40/DIST.FIXES-20/10.NÉGATIFS/Dist.fix.negatif8.mp4","",NA,NA,"",NA,NA,NA,NA,"",NA,NA,1956.387,1961.887,-0.46,-0.27,1,0,0,5.491,"Faux",0,13,13,13,1,NA,NA,"Fixed",TRUE,1
"11",NA,NA,"",NA,NA,"452363",1,"2024-12-27_15h02.45.941","Emotion.Memoire.2024","2024.1.5","MacIntel",30.3030303,NA,NA,NA,NA,NA,NA,NA,NA,NA,NA,NA,NA,NA,"IMAGES_EXP_mp4_40/ANIMEES/11-ANIMEES --- NEUTRES /video1.mp4","DISTRACTEURS-40/DIST.FIXES-20/10.NEUTRES /Dist.fix.neutre2.mp4","",NA,NA,"",NA,NA,NA,NA,"",NA,NA,1961.889,1963.736,-0.488888889,-0.298888889,1,0,0,1.837,"Faux",0,14,14,14,1,NA,NA,"Fixed",TRUE,1
"12",NA,NA,"",NA,NA,"452363",1,"2024-12-27_15h02.45.941","Emotion.Memoire.2024","2024.1.5","MacIntel",30.3030303,NA,NA,NA,NA,NA,NA,NA,NA,NA,NA,NA,NA,NA,"IMAGES_EXP_mp4_40/ANIMEES/10- ANIMEES --NEGATIVES /Video8.mp4","DISTRACTEURS-40/DIST.FIXES-20/10.NEUTRES /Dist.fix.neutre5.mp4","",NA,NA,"",NA,NA,NA,NA,"",NA,NA,1965.854,1984.068,-0.332222222,-0.302222222,1,0,0,17.539,"Faux",0,16,16,16,1,NA,NA,"Fixed",TRUE,1
"13",NA,NA,"",NA,NA,"452363",1,"2024-12-27_15h02.45.941","Emotion.Memoire.2024","2024.1.5","MacIntel",30.3030303,NA,NA,NA,NA,NA,NA,NA,NA,NA,NA,NA,NA,NA,"IMAGES_EXP_mp4_40/ANIMEES/11-ANIMEES --- NEUTRES /video2.mp4","IMAGES_EXP_mp4_40/FIXES/FIX-NEUTRE-mp4/image5.mp4","",NA,NA,"",NA,NA,NA,NA,"",NA,NA,1987.07,1988.469,0.467777778,-0.306666667,1,0,0,1.39,"Vrai",0,18,18,18,1,NA,NA,"Fixed",FALSE,1
"14",NA,NA,"",NA,NA,"452363",1,"2024-12-27_15h02.45.941","Emotion.Memoire.2024","2024.1.5","MacIntel",30.3030303,NA,NA,NA,NA,NA,NA,NA,NA,NA,NA,NA,NA,NA,"IMAGES_EXP_mp4_40/ANIMEES/10- ANIMEES --NEGATIVES /Video7.mp4","IMAGES_EXP_mp4_40/FIXES/FIX-NEUTRE-mp4/image7.mp4","",NA,NA,"",NA,NA,NA,NA,"",NA,NA,1988.47,1989.702,0.492222222,-0.3,1,0,0,1.225,"Vrai",0,19,19,19,1,NA,NA,"Fixed",FALSE,1
"15",NA,NA,"",NA,NA,"452363",1,"2024-12-27_15h02.45.941","Emotion.Memoire.2024","2024.1.5","MacIntel",30.3030303,NA,NA,NA,NA,NA,NA,NA,NA,NA,NA,NA,NA,NA,"IMAGES_EXP_mp4_40/FIXES/FIX-NEUTRE-mp4/image5.mp4","IMAGES_EXP_mp4_40/ANIMEES/10- ANIMEES --NEGATIVES /Video10.mp4","",NA,NA,"",NA,NA,NA,NA,"",NA,NA,1989.703,1990.635,0.492222222,-0.3,1,0,0,0.925,"Vrai",0,20,20,20,1,NA,NA,"Animated",FALSE,1
"16",NA,NA,"",NA,NA,"452363",1,"2024-12-27_15h02.45.941","Emotion.Memoire.2024","2024.1.5","MacIntel",30.3030303,NA,NA,NA,NA,NA,NA,NA,NA,NA,NA,NA,NA,NA,"IMAGES_EXP_mp4_40/ANIMEES/11-ANIMEES --- NEUTRES /video3.mp4","IMAGES_EXP_mp4_40/ANIMEES/10- ANIMEES --NEGATIVES /Video4.mp4","",NA,NA,"",NA,NA,NA,NA,"",NA,NA,1990.637,1991.636,0.492222222,-0.3,1,0,0,0.992,"Vrai",0,21,21,21,1,NA,NA,"Animated",FALSE,1
"17",NA,NA,"",NA,NA,"452363",1,"2024-12-27_15h02.45.941","Emotion.Memoire.2024","2024.1.5","MacIntel",30.3030303,NA,NA,NA,NA,NA,NA,NA,NA,NA,NA,NA,NA,NA,"IMAGES_EXP_mp4_40/ANIMEES/10- ANIMEES --NEGATIVES /Video5.mp4","IMAGES_EXP_mp4_40/ANIMEES/10- ANIMEES --NEGATIVES /Video5.mp4","",NA,NA,"",NA,NA,NA,NA,"",NA,NA,1991.637,1992.601,0.492222222,-0.3,1,0,0,0.958,"Vrai",0,22,22,22,1,NA,NA,"Animated",FALSE,1
"18",NA,NA,"",NA,NA,"452363",1,"2024-12-27_15h02.45.941","Emotion.Memoire.2024","2024.1.5","MacIntel",30.3030303,NA,NA,NA,NA,NA,NA,NA,NA,NA,NA,NA,NA,NA,"IMAGES_EXP_mp4_40/ANIMEES/11-ANIMEES --- NEUTRES /video7.mp4","IMAGES_EXP_mp4_40/ANIMEES/11-ANIMEES --- NEUTRES /video6.mp4","",NA,NA,"",NA,NA,NA,NA,"",NA,NA,1992.604,1993.536,0.492222222,-0.3,1,0,0,0.924,"Vrai",0,23,23,23,1,NA,NA,"Animated",FALSE,1
"19",NA,NA,"",NA,NA,"452363",1,"2024-12-27_15h02.45.941","Emotion.Memoire.2024","2024.1.5","MacIntel",30.3030303,NA,NA,NA,NA,NA,NA,NA,NA,NA,NA,NA,NA,NA,"IMAGES_EXP_mp4_40/FIXES/FIX-NEGATIF-mp4/Image8.mp4","IMAGES_EXP_mp4_40/ANIMEES/11-ANIMEES --- NEUTRES /video5.mp4","",NA,NA,"",NA,NA,NA,NA,"",NA,NA,1993.537,1994.434,0.492222222,-0.3,1,0,0,0.892,"Vrai",0,24,24,24,1,NA,NA,"Animated",FALSE,1
"20",NA,NA,"",NA,NA,"452363",1,"2024-12-27_15h02.45.941","Emotion.Memoire.2024","2024.1.5","MacIntel",30.3030303,NA,NA,NA,NA,NA,NA,NA,NA,NA,NA,NA,NA,NA,"IMAGES_EXP_mp4_40/ANIMEES/11-ANIMEES --- NEUTRES /video4.mp4","DISTRACTEURS-40/DIST.FIXES-20/10.NEUTRES /Dist.fix.neutre10.mp4","",NA,NA,"",NA,NA,NA,NA,"",NA,NA,1997.703,1999.741,-0.477777778,-0.298888889,1,0,0,2.03,"Faux",0,27,27,27,1,NA,NA,"Fixed",TRUE,1
"21",NA,NA,"",NA,NA,"452363",1,"2024-12-27_15h02.45.941","Emotion.Memoire.2024","2024.1.5","MacIntel",30.3030303,NA,NA,NA,NA,NA,NA,NA,NA,NA,NA,NA,NA,NA,"IMAGES_EXP_mp4_40/FIXES/FIX-NEGATIF-mp4/Image1.mp4","IMAGES_EXP_mp4_40/FIXES/FIX-NEGATIF-mp4/Image3.mp4","",NA,NA,"",NA,NA,NA,NA,"",NA,NA,1999.753,2001.501,-0.492222222,-0.296666667,1,0,0,1.731,"Faux",0,28,28,28,1,NA,NA,"Fixed",FALSE,0
"22",NA,NA,"",NA,NA,"452363",1,"2024-12-27_15h02.45.941","Emotion.Memoire.2024","2024.1.5","MacIntel",30.3030303,NA,NA,NA,NA,NA,NA,NA,NA,NA,NA,NA,NA,NA,"IMAGES_EXP_mp4_40/ANIMEES/10- ANIMEES --NEGATIVES /Video10.mp4","DISTRACTEURS-40/DIST.FIXES-20/10.NÉGATIFS/Dist.fix.negatif6.mp4","",NA,NA,"",NA,NA,NA,NA,"",NA,NA,2001.502,2003.402,-0.502222222,-0.302222222,1,0,0,1.893,"Faux",0,29,29,29,1,NA,NA,"Fixed",TRUE,1
"23",NA,NA,"",NA,NA,"452363",1,"2024-12-27_15h02.45.941","Emotion.Memoire.2024","2024.1.5","MacIntel",30.3030303,NA,NA,NA,NA,NA,NA,NA,NA,NA,NA,NA,NA,NA,"IMAGES_EXP_mp4_40/ANIMEES/11-ANIMEES --- NEUTRES /video8.mp4","IMAGES_EXP_mp4_40/ANIMEES/11-ANIMEES --- NEUTRES /video1.mp4","",NA,NA,"",NA,NA,NA,NA,"",NA,NA,2003.403,2004.735,0.507777778,-0.314444444,1,0,0,1.324,"Vrai",0,30,30,30,1,NA,NA,"Animated",FALSE,1
"24",NA,NA,"",NA,NA,"452363",1,"2024-12-27_15h02.45.941","Emotion.Memoire.2024","2024.1.5","MacIntel",30.3030303,NA,NA,NA,NA,NA,NA,NA,NA,NA,NA,NA,NA,NA,"IMAGES_EXP_mp4_40/FIXES/FIX-NEUTRE-mp4/image6.mp4","IMAGES_EXP_mp4_40/FIXES/FIX-NEUTRE-mp4/image9.mp4","",NA,NA,"",NA,NA,NA,NA,"",NA,NA,2004.736,2005.468,0.507777778,-0.314444444,1,0,0,0.724,"Vrai",0,31,31,31,1,NA,NA,"Fixed",FALSE,1
"25",NA,NA,"",NA,NA,"452363",1,"2024-12-27_15h02.45.941","Emotion.Memoire.2024","2024.1.5","MacIntel",30.3030303,NA,NA,NA,NA,NA,NA,NA,NA,NA,NA,NA,NA,NA,"IMAGES_EXP_mp4_40/ANIMEES/10- ANIMEES --NEGATIVES /Video2.mp4","IMAGES_EXP_mp4_40/ANIMEES/10- ANIMEES --NEGATIVES /Video6.mp4","",NA,NA,"",NA,NA,NA,NA,"",NA,NA,2005.47,2006.235,0.507777778,-0.314444444,1,0,0,0.757,"Vrai",0,32,32,32,1,NA,NA,"Animated",FALSE,1
"26",NA,NA,"",NA,NA,"452363",1,"2024-12-27_15h02.45.941","Emotion.Memoire.2024","2024.1.5","MacIntel",30.3030303,NA,NA,NA,NA,NA,NA,NA,NA,NA,NA,NA,NA,NA,"IMAGES_EXP_mp4_40/ANIMEES/10- ANIMEES --NEGATIVES /Video3.mp4","IMAGES_EXP_mp4_40/ANIMEES/11-ANIMEES --- NEUTRES /video3.mp4","",NA,NA,"",NA,NA,NA,NA,"",NA,NA,2006.236,2007.069,0.507777778,-0.314444444,1,0,0,0.824,"Vrai",0,33,33,33,1,NA,NA,"Animated",FALSE,1
"27",NA,NA,"",NA,NA,"452363",1,"2024-12-27_15h02.45.941","Emotion.Memoire.2024","2024.1.5","MacIntel",30.3030303,NA,NA,NA,NA,NA,NA,NA,NA,NA,NA,NA,NA,NA,"IMAGES_EXP_mp4_40/FIXES/FIX-NEUTRE-mp4/image3.mp4","IMAGES_EXP_mp4_40/ANIMEES/11-ANIMEES --- NEUTRES /video9.mp4","",NA,NA,"",NA,NA,NA,NA,"",NA,NA,2008.937,2010.502,0.454444444,-0.295555556,1,0,0,1.559,"Vrai",0,35,35,35,1,NA,NA,"Animated",FALSE,1
"28",NA,NA,"",NA,NA,"452363",1,"2024-12-27_15h02.45.941","Emotion.Memoire.2024","2024.1.5","MacIntel",30.3030303,NA,NA,NA,NA,NA,NA,NA,NA,NA,NA,NA,NA,NA,"IMAGES_EXP_mp4_40/FIXES/FIX-NEGATIF-mp4/Image7.mp4","IMAGES_EXP_mp4_40/FIXES/FIX-NEGATIF-mp4/Image8.mp4","",NA,NA,"",NA,NA,NA,NA,"",NA,NA,2012.169,2013.467,0.495555556,-0.28,1,0,0,1.289,"Vrai",0,37,37,37,1,NA,NA,"Fixed",FALSE,1
"29",NA,NA,"",NA,NA,"452363",1,"2024-12-27_15h02.45.941","Emotion.Memoire.2024","2024.1.5","MacIntel",30.3030303,NA,NA,NA,NA,NA,NA,NA,NA,NA,NA,NA,NA,NA,"IMAGES_EXP_mp4_40/ANIMEES/10- ANIMEES --NEGATIVES /Video6.mp4","IMAGES_EXP_mp4_40/FIXES/FIX-NEUTRE-mp4/image8.mp4","",NA,NA,"",NA,NA,NA,NA,"",NA,NA,2013.468,2014.268,0.495555556,-0.28,1,0,0,0.794,"Vrai",0,38,38,38,1,NA,NA,"Fixed",FALSE,1
"30",NA,NA,"",NA,NA,"452363",1,"2024-12-27_15h02.45.941","Emotion.Memoire.2024","2024.1.5","MacIntel",30.3030303,NA,NA,NA,NA,NA,NA,NA,NA,NA,NA,NA,NA,NA,"IMAGES_EXP_mp4_40/FIXES/FIX-NEUTRE-mp4/image1.mp4","IMAGES_EXP_mp4_40/ANIMEES/11-ANIMEES --- NEUTRES /video7.mp4","",NA,NA,"",NA,NA,NA,NA,"",NA,NA,2014.269,2015.067,0.495555556,-0.28,1,0,0,0.793,"Vrai",0,39,39,39,1,NA,NA,"Animated",FALSE,1
"31",NA,NA,"",NA,NA,"452363",1,"2024-12-27_15h02.45.941","Emotion.Memoire.2024","2024.1.5","MacIntel",30.3030303,NA,NA,NA,NA,NA,NA,NA,NA,NA,NA,NA,NA,NA,"","DISTRACTEURS-40/DIST.FIXES-20/10.NEUTRES /Dist.fix.neutre9.mp4","",NA,NA,"",NA,NA,NA,NA,"",NA,NA,2016.67,2017.801,-0.501111111,-0.291111111,1,0,0,1.123,"Faux",0,41,41,41,1,NA,NA,"Fixed",TRUE,1
"32",NA,NA,"",NA,NA,"452363",1,"2024-12-27_15h02.45.941","Emotion.Memoire.2024","2024.1.5","MacIntel",30.3030303,NA,NA,NA,NA,NA,NA,NA,NA,NA,NA,NA,NA,NA,"","DISTRACTEURS-40/DIST.FIXES-20/10.NÉGATIFS/Dist.fix.negatif7.mp4","",NA,NA,"",NA,NA,NA,NA,"",NA,NA,2017.803,2019.339,-0.507777778,-0.296666667,1,0,0,1.525,"Faux",0,42,42,42,1,NA,NA,"Fixed",TRUE,1
"33",NA,NA,"",NA,NA,"452363",1,"2024-12-27_15h02.45.941","Emotion.Memoire.2024","2024.1.5","MacIntel",30.3030303,NA,NA,NA,NA,NA,NA,NA,NA,NA,NA,NA,NA,NA,"","DISTRACTEURS-40/DIST.FIXES-20/10.NÉGATIFS/Dist.fix.negatif1.mp4","",NA,NA,"",NA,NA,NA,NA,"",NA,NA,2020.637,2021.468,-0.507777778,-0.296666667,1,0,0,0.821,"Faux",0,44,44,44,1,NA,NA,"Fixed",TRUE,1
"34",NA,NA,"",NA,NA,"452363",1,"2024-12-27_15h02.45.941","Emotion.Memoire.2024","2024.1.5","MacIntel",30.3030303,NA,NA,NA,NA,NA,NA,NA,NA,NA,NA,NA,NA,NA,"","IMAGES_EXP_mp4_40/FIXES/FIX-NEGATIF-mp4/Image4.mp4","",NA,NA,"",NA,NA,NA,NA,"",NA,NA,2024.006,2025.034,-0.507777778,-0.296666667,1,0,0,1.017,"Faux",0,47,47,47,1,NA,NA,"Fixed",FALSE,0
"35",NA,NA,"",NA,NA,"452363",1,"2024-12-27_15h02.45.941","Emotion.Memoire.2024","2024.1.5","MacIntel",30.3030303,NA,NA,NA,NA,NA,NA,NA,NA,NA,NA,NA,NA,NA,"","IMAGES_EXP_mp4_40/ANIMEES/10- ANIMEES --NEGATIVES /Video7.mp4","",NA,NA,"",NA,NA,NA,NA,"",NA,NA,2025.035,2026.735,0.496666667,-0.282222222,1,0,0,1.696,"Vrai",0,48,48,48,1,NA,NA,"Animated",FALSE,1
"36",NA,NA,"",NA,NA,"452363",1,"2024-12-27_15h02.45.941","Emotion.Memoire.2024","2024.1.5","MacIntel",30.3030303,NA,NA,NA,NA,NA,NA,NA,NA,NA,NA,NA,NA,NA,"","IMAGES_EXP_mp4_40/FIXES/FIX-NEUTRE-mp4/image4.mp4","",NA,NA,"",NA,NA,NA,NA,"",NA,NA,2026.736,2027.535,0.497777778,-0.282222222,1,0,0,0.792,"Vrai",0,49,49,49,1,NA,NA,"Fixed",FALSE,1
"37",NA,NA,"",NA,NA,"452363",1,"2024-12-27_15h02.45.941","Emotion.Memoire.2024","2024.1.5","MacIntel",30.3030303,NA,NA,NA,NA,NA,NA,NA,NA,NA,NA,NA,NA,NA,"","DISTRACTEURS-40/DIST.FIXES-20/10.NÉGATIFS/Dist.fix.negatif5.mp4","",NA,NA,"",NA,NA,NA,NA,"",NA,NA,2027.538,2030.338,-0.468888889,-0.275555556,1,0,0,2.797,"Faux",0,50,50,50,1,NA,NA,"Fixed",TRUE,1
"38",NA,NA,"",NA,NA,"452363",1,"2024-12-27_15h02.45.941","Emotion.Memoire.2024","2024.1.5","MacIntel",30.3030303,NA,NA,NA,NA,NA,NA,NA,NA,NA,NA,NA,NA,NA,"","IMAGES_EXP_mp4_40/ANIMEES/11-ANIMEES --- NEUTRES /video2.mp4","",NA,NA,"",NA,NA,NA,NA,"",NA,NA,2031.94,2033.401,0.51,-0.276666667,1,0,0,1.446,"Vrai",0,52,52,52,1,NA,NA,"Animated",FALSE,1
"39",NA,NA,"",NA,NA,"452363",1,"2024-12-27_15h02.45.941","Emotion.Memoire.2024","2024.1.5","MacIntel",30.3030303,NA,NA,NA,NA,NA,NA,NA,NA,NA,NA,NA,NA,NA,"","IMAGES_EXP_mp4_40/FIXES/FIX-NEGATIF-mp4/Image7.mp4","",NA,NA,"",NA,NA,NA,NA,"",NA,NA,2035.204,2037.175,0.524444444,-0.312222222,1,0,0,1.965,"Vrai",0,54,54,54,1,NA,NA,"Fixed",FALSE,1
"40",NA,NA,"",NA,NA,"452363",1,"2024-12-27_15h02.45.941","Emotion.Memoire.2024","2024.1.5","MacIntel",30.3030303,NA,NA,NA,NA,NA,NA,NA,NA,NA,NA,NA,NA,NA,"","IMAGES_EXP_mp4_40/FIXES/FIX-NEGATIF-mp4/Image6.mp4","",NA,NA,"",NA,NA,NA,NA,"",NA,NA,2037.192,2038.059,0.524444444,-0.312222222,1,0,0,0.843,"Vrai",0,55,55,55,1,NA,NA,"Fixed",FALSE,1
"41",NA,NA,"",NA,NA,"452363",1,"2024-12-27_15h02.45.941","Emotion.Memoire.2024","2024.1.5","MacIntel",30.3030303,NA,NA,NA,NA,NA,NA,NA,NA,NA,NA,NA,NA,NA,"","IMAGES_EXP_mp4_40/FIXES/FIX-NEGATIF-mp4/Image5.mp4","",NA,NA,"",NA,NA,NA,NA,"",NA,NA,2038.06,2039.435,-0.508888889,-0.297777778,1,0,0,1.345,"Faux",0,56,56,56,1,NA,NA,"Fixed",FALSE,0
"42",NA,NA,"",NA,NA,"452363",1,"2024-12-27_15h02.45.941","Emotion.Memoire.2024","2024.1.5","MacIntel",30.3030303,NA,NA,NA,NA,NA,NA,NA,NA,NA,NA,NA,NA,NA,"","IMAGES_EXP_mp4_40/ANIMEES/11-ANIMEES --- NEUTRES /video10.mp4","",NA,NA,"",NA,NA,NA,NA,"",NA,NA,2039.436,2040.967,0.488888889,-0.303333333,1,0,0,1.52,"Vrai",0,57,57,57,1,NA,NA,"Animated",FALSE,1
"43",NA,NA,"",NA,NA,"452363",1,"2024-12-27_15h02.45.941","Emotion.Memoire.2024","2024.1.5","MacIntel",30.3030303,NA,NA,NA,NA,NA,NA,NA,NA,NA,NA,NA,NA,NA,"","DISTRACTEURS-40/DIST.FIXES-20/10.NEUTRES /Dist.fix.neutre4.mp4","",NA,NA,"",NA,NA,NA,NA,"",NA,NA,2040.968,2042.368,-0.494444444,-0.257777778,1,0,0,1.393,"Faux",0,58,58,58,1,NA,NA,"Fixed",TRUE,1
"44",NA,NA,"",NA,NA,"452363",1,"2024-12-27_15h02.45.941","Emotion.Memoire.2024","2024.1.5","MacIntel",30.3030303,NA,NA,NA,NA,NA,NA,NA,NA,NA,NA,NA,NA,NA,"","IMAGES_EXP_mp4_40/ANIMEES/11-ANIMEES --- NEUTRES /video4.mp4","",NA,NA,"",NA,NA,NA,NA,"",NA,NA,2042.369,2043.567,0.492222222,-0.271111111,1,0,0,1.177,"Vrai",0,59,59,59,1,NA,NA,"Animated",FALSE,1
"45",NA,NA,"",NA,NA,"452363",1,"2024-12-27_15h02.45.941","Emotion.Memoire.2024","2024.1.5","MacIntel",30.3030303,NA,NA,NA,NA,NA,NA,NA,NA,NA,NA,NA,NA,NA,"","DISTRACTEURS-40/DIST.FIXES-20/10.NEUTRES /Dist.fix.neutre6.mp4","",NA,NA,"",NA,NA,NA,NA,"",NA,NA,2043.57,2048.675,-0.496666667,-0.286666667,1,0,0,5.093,"Faux",0,60,60,60,1,NA,NA,"Fixed",TRUE,1
"46",NA,NA,"",NA,NA,"452363",1,"2024-12-27_15h02.45.941","Emotion.Memoire.2024","2024.1.5","MacIntel",30.3030303,NA,NA,NA,NA,NA,NA,NA,NA,NA,NA,NA,NA,NA,"","DISTRACTEURS-40/DIST.FIXES-20/10.NEUTRES /Dist.fix.neutre3.mp4","",NA,NA,"",NA,NA,NA,NA,"",NA,NA,2048.693,2050.968,-0.483333333,-0.303333333,1,0,0,2.201,"Faux",0,61,61,61,1,NA,NA,"Fixed",TRUE,1
"47",NA,NA,"",NA,NA,"452363",1,"2024-12-27_15h02.45.941","Emotion.Memoire.2024","2024.1.5","MacIntel",30.3030303,NA,NA,NA,NA,NA,NA,NA,NA,NA,NA,NA,NA,NA,"","DISTRACTEURS-40/DIST.FIXES-20/10.NÉGATIFS/Dist.fix.negatif10.mp4","",NA,NA,"",NA,NA,NA,NA,"",NA,NA,2050.97,2052,-0.483333333,-0.303333333,1,0,0,1.024,"Faux",0,62,62,62,1,NA,NA,"Fixed",TRUE,1
"48",NA,NA,"",NA,NA,"452363",1,"2024-12-27_15h02.45.941","Emotion.Memoire.2024","2024.1.5","MacIntel",30.3030303,NA,NA,NA,NA,NA,NA,NA,NA,NA,NA,NA,NA,NA,"","IMAGES_EXP_mp4_40/ANIMEES/10- ANIMEES --NEGATIVES /Video1.mp4","",NA,NA,"",NA,NA,NA,NA,"",NA,NA,2052.001,2266.931,-0.484444444,-0.288888889,1,0,0,214.923,"Faux",0,63,63,63,1,NA,NA,"Animated",FALSE,0
"49",NA,NA,"",NA,NA,"452363",1,"2024-12-27_15h02.45.941","Emotion.Memoire.2024","2024.1.5","MacIntel",30.3030303,NA,NA,NA,NA,NA,NA,NA,NA,NA,NA,NA,NA,NA,"","DISTRACTEURS-40/DIST.FIXES-20/10.NÉGATIFS/Dist.fix.negatif9.mp4","",NA,NA,"",NA,NA,NA,NA,"",NA,NA,2266.932,2271.83,-0.483333333,-0.284444444,1,0,0,4.894,"Faux",0,64,64,64,1,NA,NA,"Fixed",TRUE,1
"50",NA,NA,"",NA,NA,"452363",1,"2024-12-27_15h02.45.941","Emotion.Memoire.2024","2024.1.5","MacIntel",30.3030303,NA,NA,NA,NA,NA,NA,NA,NA,NA,NA,NA,NA,NA,"","DISTRACTEURS-40/DIST.FIXES-20/10.NÉGATIFS/Dist.fix.negatif2.mp4","",NA,NA,"",NA,NA,NA,NA,"",NA,NA,2271.831,2277.665,-0.51,-0.305555556,1,0,0,5.813,"Faux",0,65,65,65,1,NA,NA,"Fixed",TRUE,1
"51",NA,NA,"",NA,NA,"452363",1,"2024-12-27_15h02.45.941","Emotion.Memoire.2024","2024.1.5","MacIntel",30.3030303,NA,NA,NA,NA,NA,NA,NA,NA,NA,NA,NA,NA,NA,"","IMAGES_EXP_mp4_40/FIXES/FIX-NEUTRE-mp4/image10.mp4","",NA,NA,"",NA,NA,NA,NA,"",NA,NA,2277.666,2279.799,0.477777778,-0.294444444,1,0,0,2.114,"Vrai",0,66,66,66,1,NA,NA,"Fixed",FALSE,1
"52",NA,NA,"",NA,NA,"452363",1,"2024-12-27_15h02.45.941","Emotion.Memoire.2024","2024.1.5","MacIntel",30.3030303,NA,NA,NA,NA,NA,NA,NA,NA,NA,NA,NA,NA,NA,"","IMAGES_EXP_mp4_40/FIXES/FIX-NEGATIF-mp4/Image1.mp4","",NA,NA,"",NA,NA,NA,NA,"",NA,NA,2279.804,2280.931,0.518888889,-0.303333333,1,0,0,1.114,"Vrai",0,67,67,67,1,NA,NA,"Fixed",FALSE,1
"53",NA,NA,"",NA,NA,"452363",1,"2024-12-27_15h02.45.941","Emotion.Memoire.2024","2024.1.5","MacIntel",30.3030303,NA,NA,NA,NA,NA,NA,NA,NA,NA,NA,NA,NA,NA,"","IMAGES_EXP_mp4_40/ANIMEES/10- ANIMEES --NEGATIVES /Video3.mp4","",NA,NA,"",NA,NA,NA,NA,"",NA,NA,2280.931,2281.864,0.518888889,-0.303333333,1,0,0,0.912,"Vrai",0,68,68,68,1,NA,NA,"Animated",FALSE,1
"54",NA,NA,"",NA,NA,"452363",1,"2024-12-27_15h02.45.941","Emotion.Memoire.2024","2024.1.5","MacIntel",30.3030303,NA,NA,NA,NA,NA,NA,NA,NA,NA,NA,NA,NA,NA,"","DISTRACTEURS-40/DIST.FIXES-20/10.NEUTRES /Dist.fix.neutre1.mp4","",NA,NA,"",NA,NA,NA,NA,"",NA,NA,2281.864,2283.331,-0.493333333,-0.29,1,0,0,1.449,"Faux",0,69,69,69,1,NA,NA,"Fixed",TRUE,1
"55",NA,NA,"",NA,NA,"452363",1,"2024-12-27_15h02.45.941","Emotion.Memoire.2024","2024.1.5","MacIntel",30.3030303,NA,NA,NA,NA,NA,NA,NA,NA,NA,NA,NA,NA,NA,"","DISTRACTEURS-40/DIST.FIXES-20/10.NÉGATIFS/Dist.fix.negatif3.mp4","",NA,NA,"",NA,NA,NA,NA,"",NA,NA,2283.331,2284.564,-0.493333333,-0.288888889,1,0,0,1.215,"Faux",0,70,70,70,1,NA,NA,"Fixed",TRUE,1
"56",NA,NA,"",NA,NA,"452363",1,"2024-12-27_15h02.45.941","Emotion.Memoire.2024","2024.1.5","MacIntel",30.3030303,NA,NA,NA,NA,NA,NA,NA,NA,NA,NA,NA,NA,NA,"","IMAGES_EXP_mp4_40/FIXES/FIX-NEUTRE-mp4/image3.mp4","",NA,NA,"",NA,NA,NA,NA,"",NA,NA,2284.564,2287.063,0.518888889,-0.261111111,1,0,0,2.473,"Vrai",0,71,71,71,1,NA,NA,"Fixed",FALSE,1
"57",NA,NA,"",NA,NA,"452363",1,"2024-12-27_15h02.45.941","Emotion.Memoire.2024","2024.1.5","MacIntel",30.3030303,NA,NA,NA,NA,NA,NA,NA,NA,NA,NA,NA,NA,NA,"","IMAGES_EXP_mp4_40/FIXES/FIX-NEGATIF-mp4/Image10.mp4","",NA,NA,"",NA,NA,NA,NA,"",NA,NA,2287.064,2287.897,0.518888889,-0.262222222,1,0,0,0.811,"Vrai",0,72,72,72,1,NA,NA,"Fixed",FALSE,1
"58",NA,NA,"",NA,NA,"452363",1,"2024-12-27_15h02.45.941","Emotion.Memoire.2024","2024.1.5","MacIntel",30.3030303,NA,NA,NA,NA,NA,NA,NA,NA,NA,NA,NA,NA,NA,"","IMAGES_EXP_mp4_40/FIXES/FIX-NEUTRE-mp4/image1.mp4","",NA,NA,"",NA,NA,NA,NA,"",NA,NA,2287.898,2288.764,0.518888889,-0.262222222,1,0,0,0.845,"Vrai",0,73,73,73,1,NA,NA,"Fixed",FALSE,1
"59",NA,NA,"",NA,NA,"452363",1,"2024-12-27_15h02.45.941","Emotion.Memoire.2024","2024.1.5","MacIntel",30.3030303,NA,NA,NA,NA,NA,NA,NA,NA,NA,NA,NA,NA,NA,"","DISTRACTEURS-40/DIST.FIXES-20/10.NÉGATIFS/Dist.fix.negatif4.mp4","",NA,NA,"",NA,NA,NA,NA,"",NA,NA,2290.464,2292.767,-0.483333333,-0.276666667,1,0,0,2.288,"Faux",0,75,75,75,1,NA,NA,"Fixed",TRUE,1
"60",NA,NA,"",NA,NA,"452363",1,"2024-12-27_15h02.45.941","Emotion.Memoire.2024","2024.1.5","MacIntel",30.3030303,NA,NA,NA,NA,NA,NA,NA,NA,NA,NA,NA,NA,NA,"","IMAGES_EXP_mp4_40/ANIMEES/10- ANIMEES --NEGATIVES /Video9.mp4","",NA,NA,"",NA,NA,NA,NA,"",NA,NA,2298.23,2300.165,0.495555556,-0.265555556,1,0,0,1.919,"Vrai",0,78,78,78,1,NA,NA,"Animated",FALSE,1
"61",NA,NA,"",NA,NA,"524648",1,"2025-02-25_20h07.15.941","Emotion.Memoire.2024","2024.1.5","MacIntel",20,NA,NA,NA,NA,NA,NA,NA,NA,NA,NA,NA,NA,NA,"IMAGES_EXP_mp4_40/FIXES/FIX-NEGATIF-mp4/Image3.mp4","IMAGES_EXP_mp4_40/ANIMEES/10- ANIMEES --NEGATIVES /Video2.mp4","DISTRACTEURS-40/DIST.FIXES-20/10.NÉGATIFS/Dist.fix.negatif5.mp4",NA,NA,"",NA,NA,NA,NA,"",NA,NA,920.5545,929.9277,0.503187663,-0.310668606,1,0,0,9.3705,"Vrai",0,2,2,2,1,NA,NA,"Animated",FALSE,1
"62",NA,NA,"",NA,NA,"524648",1,"2025-02-25_20h07.15.941","Emotion.Memoire.2024","2024.1.5","MacIntel",20,NA,NA,NA,NA,NA,NA,NA,NA,NA,NA,NA,NA,NA,"IMAGES_EXP_mp4_40/FIXES/FIX-NEGATIF-mp4/Image4.mp4","IMAGES_EXP_mp4_40/FIXES/FIX-NEUTRE-mp4/image6.mp4","",NA,NA,"",NA,NA,NA,NA,"",NA,NA,929.9281,931.0278,0.480218506,-0.309536065,1,0,0,1.0986,"Vrai",0,3,3,3,1,NA,NA,"Fixed",FALSE,1
"63",NA,NA,"",NA,NA,"524648",1,"2025-02-25_20h07.15.941","Emotion.Memoire.2024","2024.1.5","MacIntel",20,NA,NA,NA,NA,NA,NA,NA,NA,NA,NA,NA,NA,NA,"IMAGES_EXP_mp4_40/FIXES/FIX-NEGATIF-mp4/Image10.mp4","IMAGES_EXP_mp4_40/FIXES/FIX-NEUTRE-mp4/image2.mp4","",NA,NA,"",NA,NA,NA,NA,"",NA,NA,931.0283,931.8582,0.480218506,-0.309536065,1,0,0,0.829,"Vrai",0,4,4,4,1,NA,NA,"Fixed",FALSE,1
"64",NA,NA,"",NA,NA,"524648",1,"2025-02-25_20h07.15.941","Emotion.Memoire.2024","2024.1.5","MacIntel",20,NA,NA,NA,NA,NA,NA,NA,NA,NA,NA,NA,NA,NA,"IMAGES_EXP_mp4_40/ANIMEES/11-ANIMEES --- NEUTRES /video10.mp4","DISTRACTEURS-40/DIST.FIXES-20/10.NEUTRES /Dist.fix.neutre7.mp4","",NA,NA,"",NA,NA,NA,NA,"",NA,NA,931.8586,934.2871,-0.52934967,-0.29083842,1,0,0,2.4253,"Faux",0,5,5,5,1,NA,NA,"Fixed",TRUE,1
"65",NA,NA,"",NA,NA,"524648",1,"2025-02-25_20h07.15.941","Emotion.Memoire.2024","2024.1.5","MacIntel",20,NA,NA,NA,NA,NA,NA,NA,NA,NA,NA,NA,NA,NA,"IMAGES_EXP_mp4_40/FIXES/FIX-NEUTRE-mp4/image10.mp4","IMAGES_EXP_mp4_40/FIXES/FIX-NEGATIF-mp4/Image2.mp4","",NA,NA,"",NA,NA,NA,NA,"",NA,NA,935.8987,937.3422,0.454563666,-0.286090224,1,0,0,1.4424,"Vrai",0,7,7,7,1,NA,NA,"Fixed",FALSE,1
"66",NA,NA,"",NA,NA,"524648",1,"2025-02-25_20h07.15.941","Emotion.Memoire.2024","2024.1.5","MacIntel",20,NA,NA,NA,NA,NA,NA,NA,NA,NA,NA,NA,NA,NA,"IMAGES_EXP_mp4_40/ANIMEES/10- ANIMEES --NEGATIVES /Video1.mp4","IMAGES_EXP_mp4_40/FIXES/FIX-NEGATIF-mp4/Image9.mp4","",NA,NA,"",NA,NA,NA,NA,"",NA,NA,937.3428,938.4377,0.455997586,-0.287493625,1,0,0,1.0929,"Vrai",0,8,8,8,1,NA,NA,"Fixed",FALSE,1
"67",NA,NA,"",NA,NA,"524648",1,"2025-02-25_20h07.15.941","Emotion.Memoire.2024","2024.1.5","MacIntel",20,NA,NA,NA,NA,NA,NA,NA,NA,NA,NA,NA,NA,NA,"IMAGES_EXP_mp4_40/FIXES/FIX-NEUTRE-mp4/image4.mp4","DISTRACTEURS-40/DIST.FIXES-20/10.NEUTRES /Dist.fix.neutre8.mp4","",NA,NA,"",NA,NA,NA,NA,"",NA,NA,938.44,940.7242,-0.513196072,-0.285499742,1,0,0,2.2779,"Faux",0,9,9,9,1,NA,NA,"Fixed",TRUE,1
"68",NA,NA,"",NA,NA,"524648",1,"2025-02-25_20h07.15.941","Emotion.Memoire.2024","2024.1.5","MacIntel",20,NA,NA,NA,NA,NA,NA,NA,NA,NA,NA,NA,NA,NA,"IMAGES_EXP_mp4_40/ANIMEES/11-ANIMEES --- NEUTRES /video9.mp4","IMAGES_EXP_mp4_40/ANIMEES/11-ANIMEES --- NEUTRES /video8.mp4","",NA,NA,"",NA,NA,NA,NA,"",NA,NA,942.4136,943.7753,0.465073513,-0.276606242,1,0,0,1.3603,"Vrai",0,11,11,11,1,NA,NA,"Animated",FALSE,1
"69",NA,NA,"",NA,NA,"524648",1,"2025-02-25_20h07.15.941","Emotion.Memoire.2024","2024.1.5","MacIntel",20,NA,NA,NA,NA,NA,NA,NA,NA,NA,NA,NA,NA,NA,"IMAGES_EXP_mp4_40/FIXES/FIX-NEUTRE-mp4/image8.mp4","IMAGES_EXP_mp4_40/ANIMEES/10- ANIMEES --NEGATIVES /Video8.mp4","",NA,NA,"",NA,NA,NA,NA,"",NA,NA,943.7757,945.392,0.537439236,-0.322197062,1,0,0,1.6085,"Vrai",0,12,12,12,1,NA,NA,"Animated",FALSE,1
"70",NA,NA,"",NA,NA,"524648",1,"2025-02-25_20h07.15.941","Emotion.Memoire.2024","2024.1.5","MacIntel",20,NA,NA,NA,NA,NA,NA,NA,NA,NA,NA,NA,NA,NA,"IMAGES_EXP_mp4_40/ANIMEES/11-ANIMEES --- NEUTRES /video5.mp4","DISTRACTEURS-40/DIST.FIXES-20/10.NÉGATIFS/Dist.fix.negatif8.mp4","",NA,NA,"",NA,NA,NA,NA,"",NA,NA,945.3924,946.58,-0.498246867,-0.334057482,1,0,0,1.1809,"Faux",0,13,13,13,1,NA,NA,"Fixed",TRUE,1
"71",NA,NA,"",NA,NA,"524648",1,"2025-02-25_20h07.15.941","Emotion.Memoire.2024","2024.1.5","MacIntel",20,NA,NA,NA,NA,NA,NA,NA,NA,NA,NA,NA,NA,NA,"IMAGES_EXP_mp4_40/ANIMEES/11-ANIMEES --- NEUTRES /video1.mp4","DISTRACTEURS-40/DIST.FIXES-20/10.NEUTRES /Dist.fix.neutre2.mp4","",NA,NA,"",NA,NA,NA,NA,"",NA,NA,946.5804,948.2271,-0.505852017,-0.273425157,1,0,0,1.6436,"Faux",0,14,14,14,1,NA,NA,"Fixed",TRUE,1
"72",NA,NA,"",NA,NA,"524648",1,"2025-02-25_20h07.15.941","Emotion.Memoire.2024","2024.1.5","MacIntel",20,NA,NA,NA,NA,NA,NA,NA,NA,NA,NA,NA,NA,NA,"IMAGES_EXP_mp4_40/ANIMEES/10- ANIMEES --NEGATIVES /Video8.mp4","DISTRACTEURS-40/DIST.FIXES-20/10.NEUTRES /Dist.fix.neutre5.mp4","",NA,NA,"",NA,NA,NA,NA,"",NA,NA,949.1504,949.9873,-0.476405741,-0.282589383,1,0,0,0.8332,"Faux",0,16,16,16,1,NA,NA,"Fixed",TRUE,1
"73",NA,NA,"",NA,NA,"524648",1,"2025-02-25_20h07.15.941","Emotion.Memoire.2024","2024.1.5","MacIntel",20,NA,NA,NA,NA,NA,NA,NA,NA,NA,NA,NA,NA,NA,"IMAGES_EXP_mp4_40/ANIMEES/11-ANIMEES --- NEUTRES /video2.mp4","IMAGES_EXP_mp4_40/FIXES/FIX-NEUTRE-mp4/image5.mp4","",NA,NA,"",NA,NA,NA,NA,"",NA,NA,950.8875,952.3479,0.49964464,-0.303266805,1,0,0,1.4493,"Vrai",0,18,18,18,1,NA,NA,"Fixed",FALSE,1
"74",NA,NA,"",NA,NA,"524648",1,"2025-02-25_20h07.15.941","Emotion.Memoire.2024","2024.1.5","MacIntel",20,NA,NA,NA,NA,NA,NA,NA,NA,NA,NA,NA,NA,NA,"IMAGES_EXP_mp4_40/ANIMEES/10- ANIMEES --NEGATIVES /Video7.mp4","IMAGES_EXP_mp4_40/FIXES/FIX-NEUTRE-mp4/image7.mp4","",NA,NA,"",NA,NA,NA,NA,"",NA,NA,952.3482,953.7739,0.524540202,-0.321217923,1,0,0,1.4231,"Vrai",0,19,19,19,1,NA,NA,"Fixed",FALSE,1
"75",NA,NA,"",NA,NA,"524648",1,"2025-02-25_20h07.15.941","Emotion.Memoire.2024","2024.1.5","MacIntel",20,NA,NA,NA,NA,NA,NA,NA,NA,NA,NA,NA,NA,NA,"IMAGES_EXP_mp4_40/FIXES/FIX-NEUTRE-mp4/image5.mp4","IMAGES_EXP_mp4_40/ANIMEES/10- ANIMEES --NEGATIVES /Video10.mp4","",NA,NA,"",NA,NA,NA,NA,"",NA,NA,953.7744,955.146,0.522730849,-0.315013292,1,0,0,1.3686,"Vrai",0,20,20,20,1,NA,NA,"Animated",FALSE,1
"76",NA,NA,"",NA,NA,"524648",1,"2025-02-25_20h07.15.941","Emotion.Memoire.2024","2024.1.5","MacIntel",20,NA,NA,NA,NA,NA,NA,NA,NA,NA,NA,NA,NA,NA,"IMAGES_EXP_mp4_40/ANIMEES/11-ANIMEES --- NEUTRES /video3.mp4","IMAGES_EXP_mp4_40/ANIMEES/10- ANIMEES --NEGATIVES /Video4.mp4","",NA,NA,"",NA,NA,NA,NA,"",NA,NA,955.1463,956.66,0.444640842,-0.298782281,1,0,0,1.5109,"Vrai",0,21,21,21,1,NA,NA,"Animated",FALSE,1
"77",NA,NA,"",NA,NA,"524648",1,"2025-02-25_20h07.15.941","Emotion.Memoire.2024","2024.1.5","MacIntel",20,NA,NA,NA,NA,NA,NA,NA,NA,NA,NA,NA,NA,NA,"IMAGES_EXP_mp4_40/ANIMEES/10- ANIMEES --NEGATIVES /Video5.mp4","IMAGES_EXP_mp4_40/ANIMEES/10- ANIMEES --NEGATIVES /Video5.mp4","",NA,NA,"",NA,NA,NA,NA,"",NA,NA,956.6604,957.7109,0.538439806,-0.31041097,1,0,0,1.0477,"Vrai",0,22,22,22,1,NA,NA,"Animated",FALSE,1
"78",NA,NA,"",NA,NA,"524648",1,"2025-02-25_20h07.15.941","Emotion.Memoire.2024","2024.1.5","MacIntel",20,NA,NA,NA,NA,NA,NA,NA,NA,NA,NA,NA,NA,NA,"IMAGES_EXP_mp4_40/ANIMEES/11-ANIMEES --- NEUTRES /video7.mp4","IMAGES_EXP_mp4_40/ANIMEES/11-ANIMEES --- NEUTRES /video6.mp4","",NA,NA,"",NA,NA,NA,NA,"",NA,NA,957.7114,958.5833,0.538439806,-0.31041097,1,0,0,0.8702,"Vrai",0,23,23,23,1,NA,NA,"Animated",FALSE,1
"79",NA,NA,"",NA,NA,"524648",1,"2025-02-25_20h07.15.941","Emotion.Memoire.2024","2024.1.5","MacIntel",20,NA,NA,NA,NA,NA,NA,NA,NA,NA,NA,NA,NA,NA,"IMAGES_EXP_mp4_40/FIXES/FIX-NEGATIF-mp4/Image8.mp4","IMAGES_EXP_mp4_40/ANIMEES/11-ANIMEES --- NEUTRES /video5.mp4","",NA,NA,"",NA,NA,NA,NA,"",NA,NA,958.5838,959.3709,0.538439806,-0.31041097,1,0,0,0.7864,"Vrai",0,24,24,24,1,NA,NA,"Animated",FALSE,1
"80",NA,NA,"",NA,NA,"524648",1,"2025-02-25_20h07.15.941","Emotion.Memoire.2024","2024.1.5","MacIntel",20,NA,NA,NA,NA,NA,NA,NA,NA,NA,NA,NA,NA,NA,"IMAGES_EXP_mp4_40/ANIMEES/11-ANIMEES --- NEUTRES /video4.mp4","DISTRACTEURS-40/DIST.FIXES-20/10.NEUTRES /Dist.fix.neutre10.mp4","",NA,NA,"",NA,NA,NA,NA,"",NA,NA,963.1804,964.7028,-0.528030735,-0.271897244,1,0,0,1.5212,"Faux",0,27,27,27,1,NA,NA,"Fixed",TRUE,1
"81",NA,NA,"",NA,NA,"524648",1,"2025-02-25_20h07.15.941","Emotion.Memoire.2024","2024.1.5","MacIntel",20,NA,NA,NA,NA,NA,NA,NA,NA,NA,NA,NA,NA,NA,"IMAGES_EXP_mp4_40/FIXES/FIX-NEGATIF-mp4/Image1.mp4","IMAGES_EXP_mp4_40/FIXES/FIX-NEGATIF-mp4/Image3.mp4","",NA,NA,"",NA,NA,NA,NA,"",NA,NA,964.7033,966.0227,0.502160373,-0.299369642,1,0,0,1.3168,"Vrai",0,28,28,28,1,NA,NA,"Fixed",FALSE,1
"82",NA,NA,"",NA,NA,"524648",1,"2025-02-25_20h07.15.941","Emotion.Memoire.2024","2024.1.5","MacIntel",20,NA,NA,NA,NA,NA,NA,NA,NA,NA,NA,NA,NA,NA,"IMAGES_EXP_mp4_40/ANIMEES/10- ANIMEES --NEGATIVES /Video10.mp4","DISTRACTEURS-40/DIST.FIXES-20/10.NÉGATIFS/Dist.fix.negatif6.mp4","",NA,NA,"",NA,NA,NA,NA,"",NA,NA,966.0232,967.6095,-0.454219971,-0.279650472,1,0,0,1.5827,"Faux",0,29,29,29,1,NA,NA,"Fixed",TRUE,1
"83",NA,NA,"",NA,NA,"524648",1,"2025-02-25_20h07.15.941","Emotion.Memoire.2024","2024.1.5","MacIntel",20,NA,NA,NA,NA,NA,NA,NA,NA,NA,NA,NA,NA,NA,"IMAGES_EXP_mp4_40/ANIMEES/11-ANIMEES --- NEUTRES /video8.mp4","IMAGES_EXP_mp4_40/ANIMEES/11-ANIMEES --- NEUTRES /video1.mp4","",NA,NA,"",NA,NA,NA,NA,"",NA,NA,967.6098,968.8437,0.537932536,-0.317900933,1,0,0,1.2313,"Vrai",0,30,30,30,1,NA,NA,"Animated",FALSE,1
"84",NA,NA,"",NA,NA,"524648",1,"2025-02-25_20h07.15.941","Emotion.Memoire.2024","2024.1.5","MacIntel",20,NA,NA,NA,NA,NA,NA,NA,NA,NA,NA,NA,NA,NA,"IMAGES_EXP_mp4_40/FIXES/FIX-NEUTRE-mp4/image6.mp4","IMAGES_EXP_mp4_40/FIXES/FIX-NEUTRE-mp4/image9.mp4","",NA,NA,"",NA,NA,NA,NA,"",NA,NA,968.8441,970.7459,0.425695801,-0.267388034,1,0,0,1.9003,"Vrai",0,31,31,31,1,NA,NA,"Fixed",FALSE,1
"85",NA,NA,"",NA,NA,"524648",1,"2025-02-25_20h07.15.941","Emotion.Memoire.2024","2024.1.5","MacIntel",20,NA,NA,NA,NA,NA,NA,NA,NA,NA,NA,NA,NA,NA,"IMAGES_EXP_mp4_40/ANIMEES/10- ANIMEES --NEGATIVES /Video2.mp4","IMAGES_EXP_mp4_40/ANIMEES/10- ANIMEES --NEGATIVES /Video6.mp4","",NA,NA,"",NA,NA,NA,NA,"",NA,NA,970.7463,971.4172,0.424392632,-0.267388034,1,0,0,0.67,"Vrai",0,32,32,32,1,NA,NA,"Animated",FALSE,1
"86",NA,NA,"",NA,NA,"524648",1,"2025-02-25_20h07.15.941","Emotion.Memoire.2024","2024.1.5","MacIntel",20,NA,NA,NA,NA,NA,NA,NA,NA,NA,NA,NA,NA,NA,"IMAGES_EXP_mp4_40/ANIMEES/10- ANIMEES --NEGATIVES /Video3.mp4","IMAGES_EXP_mp4_40/ANIMEES/11-ANIMEES --- NEUTRES /video3.mp4","",NA,NA,"",NA,NA,NA,NA,"",NA,NA,971.418,972.1746,0.424392632,-0.267388034,1,0,0,0.7532,"Vrai",0,33,33,33,1,NA,NA,"Animated",FALSE,1
"87",NA,NA,"",NA,NA,"524648",1,"2025-02-25_20h07.15.941","Emotion.Memoire.2024","2024.1.5","MacIntel",20,NA,NA,NA,NA,NA,NA,NA,NA,NA,NA,NA,NA,NA,"IMAGES_EXP_mp4_40/FIXES/FIX-NEUTRE-mp4/image3.mp4","IMAGES_EXP_mp4_40/ANIMEES/11-ANIMEES --- NEUTRES /video9.mp4","",NA,NA,"",NA,NA,NA,NA,"",NA,NA,979.0118,980.6109,0.499888238,-0.299785088,1,0,0,1.5971,"Vrai",0,35,35,35,1,NA,NA,"Animated",FALSE,1
"88",NA,NA,"",NA,NA,"524648",1,"2025-02-25_20h07.15.941","Emotion.Memoire.2024","2024.1.5","MacIntel",20,NA,NA,NA,NA,NA,NA,NA,NA,NA,NA,NA,NA,NA,"IMAGES_EXP_mp4_40/FIXES/FIX-NEGATIF-mp4/Image7.mp4","IMAGES_EXP_mp4_40/FIXES/FIX-NEGATIF-mp4/Image8.mp4","",NA,NA,"",NA,NA,NA,NA,"",NA,NA,982.1724,984.088,0.466381022,-0.318470595,1,0,0,1.915,"Vrai",0,37,37,37,1,NA,NA,"Fixed",FALSE,1
"89",NA,NA,"",NA,NA,"524648",1,"2025-02-25_20h07.15.941","Emotion.Memoire.2024","2024.1.5","MacIntel",20,NA,NA,NA,NA,NA,NA,NA,NA,NA,NA,NA,NA,NA,"IMAGES_EXP_mp4_40/ANIMEES/10- ANIMEES --NEGATIVES /Video6.mp4","IMAGES_EXP_mp4_40/FIXES/FIX-NEUTRE-mp4/image8.mp4","",NA,NA,"",NA,NA,NA,NA,"",NA,NA,984.0885,984.9758,0.466381022,-0.318470595,1,0,0,0.8852,"Vrai",0,38,38,38,1,NA,NA,"Fixed",FALSE,1
"90",NA,NA,"",NA,NA,"524648",1,"2025-02-25_20h07.15.941","Emotion.Memoire.2024","2024.1.5","MacIntel",20,NA,NA,NA,NA,NA,NA,NA,NA,NA,NA,NA,NA,NA,"IMAGES_EXP_mp4_40/FIXES/FIX-NEUTRE-mp4/image1.mp4","IMAGES_EXP_mp4_40/ANIMEES/11-ANIMEES --- NEUTRES /video7.mp4","",NA,NA,"",NA,NA,NA,NA,"",NA,NA,984.9761,985.7754,0.466381022,-0.318470595,1,0,0,0.7987,"Vrai",0,39,39,39,1,NA,NA,"Animated",FALSE,1
"91",NA,NA,"",NA,NA,"524648",1,"2025-02-25_20h07.15.941","Emotion.Memoire.2024","2024.1.5","MacIntel",20,NA,NA,NA,NA,NA,NA,NA,NA,NA,NA,NA,NA,NA,"","DISTRACTEURS-40/DIST.FIXES-20/10.NEUTRES /Dist.fix.neutre9.mp4","",NA,NA,"",NA,NA,NA,NA,"",NA,NA,987.3419,988.4358,-0.489919501,-0.290483805,1,0,0,1.0929,"Faux",0,41,41,41,1,NA,NA,"Fixed",TRUE,1
"92",NA,NA,"",NA,NA,"524648",1,"2025-02-25_20h07.15.941","Emotion.Memoire.2024","2024.1.5","MacIntel",20,NA,NA,NA,NA,NA,NA,NA,NA,NA,NA,NA,NA,NA,"","DISTRACTEURS-40/DIST.FIXES-20/10.NÉGATIFS/Dist.fix.negatif7.mp4","",NA,NA,"",NA,NA,NA,NA,"",NA,NA,988.4363,989.4824,-0.489919501,-0.290483805,1,0,0,1.0441,"Faux",0,42,42,42,1,NA,NA,"Fixed",TRUE,1
"93",NA,NA,"",NA,NA,"524648",1,"2025-02-25_20h07.15.941","Emotion.Memoire.2024","2024.1.5","MacIntel",20,NA,NA,NA,NA,NA,NA,NA,NA,NA,NA,NA,NA,NA,"","DISTRACTEURS-40/DIST.FIXES-20/10.NÉGATIFS/Dist.fix.negatif1.mp4","",NA,NA,"",NA,NA,NA,NA,"",NA,NA,990.2816,991.0241,-0.489919501,-0.290483805,1,0,0,0.7409,"Faux",0,44,44,44,1,NA,NA,"Fixed",TRUE,1
"94",NA,NA,"",NA,NA,"524648",1,"2025-02-25_20h07.15.941","Emotion.Memoire.2024","2024.1.5","MacIntel",20,NA,NA,NA,NA,NA,NA,NA,NA,NA,NA,NA,NA,NA,"","IMAGES_EXP_mp4_40/FIXES/FIX-NEGATIF-mp4/Image4.mp4","",NA,NA,"",NA,NA,NA,NA,"",NA,NA,992.7506,994.4131,0.489969754,-0.321396823,1,0,0,1.6608,"Vrai",0,47,47,47,1,NA,NA,"Fixed",FALSE,1
"95",NA,NA,"",NA,NA,"524648",1,"2025-02-25_20h07.15.941","Emotion.Memoire.2024","2024.1.5","MacIntel",20,NA,NA,NA,NA,NA,NA,NA,NA,NA,NA,NA,NA,NA,"","IMAGES_EXP_mp4_40/ANIMEES/10- ANIMEES --NEGATIVES /Video7.mp4","",NA,NA,"",NA,NA,NA,NA,"",NA,NA,994.4137,996.0091,0.498805881,-0.304323934,1,0,0,1.5906,"Vrai",0,48,48,48,1,NA,NA,"Animated",FALSE,1
"96",NA,NA,"",NA,NA,"524648",1,"2025-02-25_20h07.15.941","Emotion.Memoire.2024","2024.1.5","MacIntel",20,NA,NA,NA,NA,NA,NA,NA,NA,NA,NA,NA,NA,NA,"","IMAGES_EXP_mp4_40/FIXES/FIX-NEUTRE-mp4/image4.mp4","",NA,NA,"",NA,NA,NA,NA,"",NA,NA,996.0099,996.8859,0.498805881,-0.304323934,1,0,0,0.8721,"Vrai",0,49,49,49,1,NA,NA,"Fixed",FALSE,1
"97",NA,NA,"",NA,NA,"524648",1,"2025-02-25_20h07.15.941","Emotion.Memoire.2024","2024.1.5","MacIntel",20,NA,NA,NA,NA,NA,NA,NA,NA,NA,NA,NA,NA,NA,"","DISTRACTEURS-40/DIST.FIXES-20/10.NÉGATIFS/Dist.fix.negatif5.mp4","",NA,NA,"",NA,NA,NA,NA,"",NA,NA,996.8862,999.0094,-0.514508192,-0.293445638,1,0,0,2.1033,"Faux",0,50,50,50,1,NA,NA,"Fixed",TRUE,1
"98",NA,NA,"",NA,NA,"524648",1,"2025-02-25_20h07.15.941","Emotion.Memoire.2024","2024.1.5","MacIntel",20,NA,NA,NA,NA,NA,NA,NA,NA,NA,NA,NA,NA,NA,"","IMAGES_EXP_mp4_40/ANIMEES/11-ANIMEES --- NEUTRES /video2.mp4","",NA,NA,"",NA,NA,NA,NA,"",NA,NA,1000.0534,1001.4575,0.426203071,-0.312908393,1,0,0,1.396,"Vrai",0,52,52,52,1,NA,NA,"Animated",FALSE,1
"99",NA,NA,"",NA,NA,"524648",1,"2025-02-25_20h07.15.941","Emotion.Memoire.2024","2024.1.5","MacIntel",20,NA,NA,NA,NA,NA,NA,NA,NA,NA,NA,NA,NA,NA,"","IMAGES_EXP_mp4_40/FIXES/FIX-NEGATIF-mp4/Image7.mp4","",NA,NA,"",NA,NA,NA,NA,"",NA,NA,1004.5624,1006.4855,0.482064616,-0.310790744,1,0,0,1.9203,"Vrai",0,54,54,54,1,NA,NA,"Fixed",FALSE,1
"100",NA,NA,"",NA,NA,"524648",1,"2025-02-25_20h07.15.941","Emotion.Memoire.2024","2024.1.5","MacIntel",20,NA,NA,NA,NA,NA,NA,NA,NA,NA,NA,NA,NA,NA,"","IMAGES_EXP_mp4_40/FIXES/FIX-NEGATIF-mp4/Image6.mp4","",NA,NA,"",NA,NA,NA,NA,"",NA,NA,1006.487,1007.8411,0.519633653,-0.314487033,1,0,0,1.3496,"Vrai",0,55,55,55,1,NA,NA,"Fixed",FALSE,1
"101",NA,NA,"",NA,NA,"524648",1,"2025-02-25_20h07.15.941","Emotion.Memoire.2024","2024.1.5","MacIntel",20,NA,NA,NA,NA,NA,NA,NA,NA,NA,NA,NA,NA,NA,"","IMAGES_EXP_mp4_40/FIXES/FIX-NEGATIF-mp4/Image5.mp4","",NA,NA,"",NA,NA,NA,NA,"",NA,NA,1007.8417,1008.6,0.519633653,-0.314487033,1,0,0,0.7542,"Vrai",0,56,56,56,1,NA,NA,"Fixed",FALSE,1
"102",NA,NA,"",NA,NA,"524648",1,"2025-02-25_20h07.15.941","Emotion.Memoire.2024","2024.1.5","MacIntel",20,NA,NA,NA,NA,NA,NA,NA,NA,NA,NA,NA,NA,NA,"","IMAGES_EXP_mp4_40/ANIMEES/11-ANIMEES --- NEUTRES /video10.mp4","",NA,NA,"",NA,NA,NA,NA,"",NA,NA,1008.6011,1009.3869,0.519633653,-0.314487033,1,0,0,0.7792,"Vrai",0,57,57,57,1,NA,NA,"Animated",FALSE,1
"103",NA,NA,"",NA,NA,"524648",1,"2025-02-25_20h07.15.941","Emotion.Memoire.2024","2024.1.5","MacIntel",20,NA,NA,NA,NA,NA,NA,NA,NA,NA,NA,NA,NA,NA,"","DISTRACTEURS-40/DIST.FIXES-20/10.NEUTRES /Dist.fix.neutre4.mp4","",NA,NA,"",NA,NA,NA,NA,"",NA,NA,1009.3882,1010.7482,-0.465086093,-0.294800754,1,0,0,1.3563,"Faux",0,58,58,58,1,NA,NA,"Fixed",TRUE,1
"104",NA,NA,"",NA,NA,"524648",1,"2025-02-25_20h07.15.941","Emotion.Memoire.2024","2024.1.5","MacIntel",20,NA,NA,NA,NA,NA,NA,NA,NA,NA,NA,NA,NA,NA,"","IMAGES_EXP_mp4_40/ANIMEES/11-ANIMEES --- NEUTRES /video4.mp4","",NA,NA,"",NA,NA,NA,NA,"",NA,NA,1010.7486,1011.9471,0.444398329,-0.293572456,1,0,0,1.192,"Vrai",0,59,59,59,1,NA,NA,"Animated",FALSE,1
"105",NA,NA,"",NA,NA,"524648",1,"2025-02-25_20h07.15.941","Emotion.Memoire.2024","2024.1.5","MacIntel",20,NA,NA,NA,NA,NA,NA,NA,NA,NA,NA,NA,NA,NA,"","DISTRACTEURS-40/DIST.FIXES-20/10.NEUTRES /Dist.fix.neutre6.mp4","",NA,NA,"",NA,NA,NA,NA,"",NA,NA,1011.9479,1013.5575,-0.507924873,-0.310603231,1,0,0,1.6017,"Faux",0,60,60,60,1,NA,NA,"Fixed",TRUE,1
"106",NA,NA,"",NA,NA,"524648",1,"2025-02-25_20h07.15.941","Emotion.Memoire.2024","2024.1.5","MacIntel",20,NA,NA,NA,NA,NA,NA,NA,NA,NA,NA,NA,NA,NA,"","DISTRACTEURS-40/DIST.FIXES-20/10.NEUTRES /Dist.fix.neutre3.mp4","",NA,NA,"",NA,NA,NA,NA,"",NA,NA,1013.5579,1015.1378,-0.520321113,-0.278091363,1,0,0,1.5693,"Faux",0,61,61,61,1,NA,NA,"Fixed",TRUE,1
"107",NA,NA,"",NA,NA,"524648",1,"2025-02-25_20h07.15.941","Emotion.Memoire.2024","2024.1.5","MacIntel",20,NA,NA,NA,NA,NA,NA,NA,NA,NA,NA,NA,NA,NA,"","DISTRACTEURS-40/DIST.FIXES-20/10.NÉGATIFS/Dist.fix.negatif10.mp4","",NA,NA,"",NA,NA,NA,NA,"",NA,NA,1015.1382,1015.9718,-0.520321113,-0.278091363,1,0,0,0.8308,"Faux",0,62,62,62,1,NA,NA,"Fixed",TRUE,1
"108",NA,NA,"",NA,NA,"524648",1,"2025-02-25_20h07.15.941","Emotion.Memoire.2024","2024.1.5","MacIntel",20,NA,NA,NA,NA,NA,NA,NA,NA,NA,NA,NA,NA,NA,"","IMAGES_EXP_mp4_40/ANIMEES/10- ANIMEES --NEGATIVES /Video1.mp4","",NA,NA,"",NA,NA,NA,NA,"",NA,NA,1015.973,1017.8507,0.44843316,-0.277197876,1,0,0,1.8699,"Vrai",0,63,63,63,1,NA,NA,"Animated",FALSE,1
"109",NA,NA,"",NA,NA,"524648",1,"2025-02-25_20h07.15.941","Emotion.Memoire.2024","2024.1.5","MacIntel",20,NA,NA,NA,NA,NA,NA,NA,NA,NA,NA,NA,NA,NA,"","DISTRACTEURS-40/DIST.FIXES-20/10.NÉGATIFS/Dist.fix.negatif9.mp4","",NA,NA,"",NA,NA,NA,NA,"",NA,NA,1017.8512,1023.1666,-0.476475559,-0.290522054,1,0,0,5.3141,"Faux",0,64,64,64,1,NA,NA,"Fixed",TRUE,1
"110",NA,NA,"",NA,NA,"524648",1,"2025-02-25_20h07.15.941","Emotion.Memoire.2024","2024.1.5","MacIntel",20,NA,NA,NA,NA,NA,NA,NA,NA,NA,NA,NA,NA,NA,"","DISTRACTEURS-40/DIST.FIXES-20/10.NÉGATIFS/Dist.fix.negatif2.mp4","",NA,NA,"",NA,NA,NA,NA,"",NA,NA,1023.1671,1030.1901,-0.487100084,-0.293497789,1,0,0,7.0208,"Faux",0,65,65,65,1,NA,NA,"Fixed",TRUE,1
"111",NA,NA,"",NA,NA,"524648",1,"2025-02-25_20h07.15.941","Emotion.Memoire.2024","2024.1.5","MacIntel",20,NA,NA,NA,NA,NA,NA,NA,NA,NA,NA,NA,NA,NA,"","IMAGES_EXP_mp4_40/FIXES/FIX-NEUTRE-mp4/image10.mp4","",NA,NA,"",NA,NA,NA,NA,"",NA,NA,1030.1925,1031.8574,0.474039849,-0.289821506,1,0,0,1.6563,"Vrai",0,66,66,66,1,NA,NA,"Fixed",FALSE,1
"112",NA,NA,"",NA,NA,"524648",1,"2025-02-25_20h07.15.941","Emotion.Memoire.2024","2024.1.5","MacIntel",20,NA,NA,NA,NA,NA,NA,NA,NA,NA,NA,NA,NA,NA,"","IMAGES_EXP_mp4_40/FIXES/FIX-NEGATIF-mp4/Image1.mp4","",NA,NA,"",NA,NA,NA,NA,"",NA,NA,1031.8579,1033.1697,0.493445638,-0.306128743,1,0,0,1.3075,"Vrai",0,67,67,67,1,NA,NA,"Fixed",FALSE,1
"113",NA,NA,"",NA,NA,"524648",1,"2025-02-25_20h07.15.941","Emotion.Memoire.2024","2024.1.5","MacIntel",20,NA,NA,NA,NA,NA,NA,NA,NA,NA,NA,NA,NA,NA,"","IMAGES_EXP_mp4_40/ANIMEES/10- ANIMEES --NEGATIVES /Video3.mp4","",NA,NA,"",NA,NA,NA,NA,"",NA,NA,1033.1701,1037.096,0.492656521,-0.305612115,1,0,0,3.9246,"Vrai",0,68,68,68,1,NA,NA,"Animated",FALSE,1
"114",NA,NA,"",NA,NA,"524648",1,"2025-02-25_20h07.15.941","Emotion.Memoire.2024","2024.1.5","MacIntel",20,NA,NA,NA,NA,NA,NA,NA,NA,NA,NA,NA,NA,NA,"","DISTRACTEURS-40/DIST.FIXES-20/10.NEUTRES /Dist.fix.neutre1.mp4","",NA,NA,"",NA,NA,NA,NA,"",NA,NA,1037.0974,1038.4712,-0.494574551,-0.272917209,1,0,0,1.3726,"Faux",0,69,69,69,1,NA,NA,"Fixed",TRUE,1
"115",NA,NA,"",NA,NA,"524648",1,"2025-02-25_20h07.15.941","Emotion.Memoire.2024","2024.1.5","MacIntel",20,NA,NA,NA,NA,NA,NA,NA,NA,NA,NA,NA,NA,NA,"","DISTRACTEURS-40/DIST.FIXES-20/10.NÉGATIFS/Dist.fix.negatif3.mp4","",NA,NA,"",NA,NA,NA,NA,"",NA,NA,1038.4718,1039.6009,-0.494574551,-0.273054267,1,0,0,1.1258,"Faux",0,70,70,70,1,NA,NA,"Fixed",TRUE,1
"116",NA,NA,"",NA,NA,"524648",1,"2025-02-25_20h07.15.941","Emotion.Memoire.2024","2024.1.5","MacIntel",20,NA,NA,NA,NA,NA,NA,NA,NA,NA,NA,NA,NA,NA,"","IMAGES_EXP_mp4_40/FIXES/FIX-NEUTRE-mp4/image3.mp4","",NA,NA,"",NA,NA,NA,NA,"",NA,NA,1039.6017,1047.7683,-0.486367323,-0.284867757,1,0,0,8.1599,"Faux",0,71,71,71,1,NA,NA,"Fixed",FALSE,0
"117",NA,NA,"",NA,NA,"524648",1,"2025-02-25_20h07.15.941","Emotion.Memoire.2024","2024.1.5","MacIntel",20,NA,NA,NA,NA,NA,NA,NA,NA,NA,NA,NA,NA,NA,"","IMAGES_EXP_mp4_40/FIXES/FIX-NEGATIF-mp4/Image10.mp4","",NA,NA,"",NA,NA,NA,NA,"",NA,NA,1047.7689,1049.2605,0.457036133,-0.286847331,1,0,0,1.4875,"Vrai",0,72,72,72,1,NA,NA,"Fixed",FALSE,1
"118",NA,NA,"",NA,NA,"524648",1,"2025-02-25_20h07.15.941","Emotion.Memoire.2024","2024.1.5","MacIntel",20,NA,NA,NA,NA,NA,NA,NA,NA,NA,NA,NA,NA,NA,"","IMAGES_EXP_mp4_40/FIXES/FIX-NEUTRE-mp4/image1.mp4","",NA,NA,"",NA,NA,NA,NA,"",NA,NA,1049.2611,1050.5954,0.537216254,-0.326879272,1,0,0,1.332,"Vrai",0,73,73,73,1,NA,NA,"Fixed",FALSE,1
"119",NA,NA,"",NA,NA,"524648",1,"2025-02-25_20h07.15.941","Emotion.Memoire.2024","2024.1.5","MacIntel",20,NA,NA,NA,NA,NA,NA,NA,NA,NA,NA,NA,NA,NA,"","DISTRACTEURS-40/DIST.FIXES-20/10.NÉGATIFS/Dist.fix.negatif4.mp4","",NA,NA,"",NA,NA,NA,NA,"",NA,NA,1051.8317,1052.9789,-0.506680603,-0.280773655,1,0,0,1.1434,"Faux",0,75,75,75,1,NA,NA,"Fixed",TRUE,1
"120",NA,NA,"",NA,NA,"524648",1,"2025-02-25_20h07.15.941","Emotion.Memoire.2024","2024.1.5","MacIntel",20,NA,NA,NA,NA,NA,NA,NA,NA,NA,NA,NA,NA,NA,"","IMAGES_EXP_mp4_40/ANIMEES/10- ANIMEES --NEGATIVES /Video9.mp4","",NA,NA,"",NA,NA,NA,NA,"",NA,NA,1054.8803,1056.6225,0.448329264,-0.285245633,1,0,0,1.7316,"Vrai",0,78,78,78,1,NA,NA,"Animated",FALSE,1
"121",NA,NA,"",NA,NA,"842187",1,"2025-03-31_11h38.47.672","Emotion.Memoire.2024","2024.1.5","MacIntel",19.60784314,NA,NA,NA,NA,NA,NA,NA,NA,NA,NA,NA,NA,NA,"IMAGES_EXP_mp4_40/FIXES/FIX-NEGATIF-mp4/Image3.mp4","IMAGES_EXP_mp4_40/ANIMEES/10- ANIMEES --NEGATIVES /Video2.mp4","DISTRACTEURS-40/DIST.FIXES-20/10.NÉGATIFS/Dist.fix.negatif5.mp4",NA,NA,"",NA,NA,NA,NA,"",NA,NA,1215.388,1216.72,0.503456221,-0.291474654,1,0,0,1.331,"Vrai",0,2,2,2,1,NA,NA,"Animated",FALSE,1
"122",NA,NA,"",NA,NA,"842187",1,"2025-03-31_11h38.47.672","Emotion.Memoire.2024","2024.1.5","MacIntel",19.60784314,NA,NA,NA,NA,NA,NA,NA,NA,NA,NA,NA,NA,NA,"IMAGES_EXP_mp4_40/FIXES/FIX-NEGATIF-mp4/Image4.mp4","IMAGES_EXP_mp4_40/FIXES/FIX-NEUTRE-mp4/image6.mp4","",NA,NA,"",NA,NA,NA,NA,"",NA,NA,1216.722,1217.92,0.457373272,-0.285714286,1,0,0,1.196,"Vrai",0,3,3,3,1,NA,NA,"Fixed",FALSE,1
"123",NA,NA,"",NA,NA,"842187",1,"2025-03-31_11h38.47.672","Emotion.Memoire.2024","2024.1.5","MacIntel",19.60784314,NA,NA,NA,NA,NA,NA,NA,NA,NA,NA,NA,NA,NA,"IMAGES_EXP_mp4_40/FIXES/FIX-NEGATIF-mp4/Image10.mp4","IMAGES_EXP_mp4_40/FIXES/FIX-NEUTRE-mp4/image2.mp4","",NA,NA,"",NA,NA,NA,NA,"",NA,NA,1217.92,1218.82,0.457373272,-0.285714286,1,0,0,0.898,"Vrai",0,4,4,4,1,NA,NA,"Fixed",FALSE,1
"124",NA,NA,"",NA,NA,"842187",1,"2025-03-31_11h38.47.672","Emotion.Memoire.2024","2024.1.5","MacIntel",19.60784314,NA,NA,NA,NA,NA,NA,NA,NA,NA,NA,NA,NA,NA,"IMAGES_EXP_mp4_40/ANIMEES/11-ANIMEES --- NEUTRES /video10.mp4","DISTRACTEURS-40/DIST.FIXES-20/10.NEUTRES /Dist.fix.neutre7.mp4","",NA,NA,"",NA,NA,NA,NA,"",NA,NA,1218.822,1220.086,-0.438940092,-0.290322581,1,0,0,1.259,"Faux",0,5,5,5,1,NA,NA,"Fixed",TRUE,1
"125",NA,NA,"",NA,NA,"842187",1,"2025-03-31_11h38.47.672","Emotion.Memoire.2024","2024.1.5","MacIntel",19.60784314,NA,NA,NA,NA,NA,NA,NA,NA,NA,NA,NA,NA,NA,"IMAGES_EXP_mp4_40/FIXES/FIX-NEUTRE-mp4/image10.mp4","IMAGES_EXP_mp4_40/FIXES/FIX-NEGATIF-mp4/Image2.mp4","",NA,NA,"",NA,NA,NA,NA,"",NA,NA,1221.055,1222.22,0.520737327,-0.30875576,1,0,0,1.163,"Vrai",0,7,7,7,1,NA,NA,"Fixed",FALSE,1
"126",NA,NA,"",NA,NA,"842187",1,"2025-03-31_11h38.47.672","Emotion.Memoire.2024","2024.1.5","MacIntel",19.60784314,NA,NA,NA,NA,NA,NA,NA,NA,NA,NA,NA,NA,NA,"IMAGES_EXP_mp4_40/ANIMEES/10- ANIMEES --NEGATIVES /Video1.mp4","IMAGES_EXP_mp4_40/FIXES/FIX-NEGATIF-mp4/Image9.mp4","",NA,NA,"",NA,NA,NA,NA,"",NA,NA,1222.222,1223.32,0.5,-0.311059908,1,0,0,1.096,"Vrai",0,8,8,8,1,NA,NA,"Fixed",FALSE,1
"127",NA,NA,"",NA,NA,"842187",1,"2025-03-31_11h38.47.672","Emotion.Memoire.2024","2024.1.5","MacIntel",19.60784314,NA,NA,NA,NA,NA,NA,NA,NA,NA,NA,NA,NA,NA,"IMAGES_EXP_mp4_40/FIXES/FIX-NEUTRE-mp4/image4.mp4","DISTRACTEURS-40/DIST.FIXES-20/10.NEUTRES /Dist.fix.neutre8.mp4","",NA,NA,"",NA,NA,NA,NA,"",NA,NA,1223.32,1224.653,-0.443548387,-0.293778802,1,0,0,1.328,"Faux",0,9,9,9,1,NA,NA,"Fixed",TRUE,1
"128",NA,NA,"",NA,NA,"842187",1,"2025-03-31_11h38.47.672","Emotion.Memoire.2024","2024.1.5","MacIntel",19.60784314,NA,NA,NA,NA,NA,NA,NA,NA,NA,NA,NA,NA,NA,"IMAGES_EXP_mp4_40/ANIMEES/11-ANIMEES --- NEUTRES /video9.mp4","IMAGES_EXP_mp4_40/ANIMEES/11-ANIMEES --- NEUTRES /video8.mp4","",NA,NA,"",NA,NA,NA,NA,"",NA,NA,1225.588,1226.687,0.410138249,-0.283410138,1,0,0,1.096,"Vrai",0,11,11,11,1,NA,NA,"Animated",FALSE,1
"129",NA,NA,"",NA,NA,"842187",1,"2025-03-31_11h38.47.672","Emotion.Memoire.2024","2024.1.5","MacIntel",19.60784314,NA,NA,NA,NA,NA,NA,NA,NA,NA,NA,NA,NA,NA,"IMAGES_EXP_mp4_40/FIXES/FIX-NEUTRE-mp4/image8.mp4","IMAGES_EXP_mp4_40/ANIMEES/10- ANIMEES --NEGATIVES /Video8.mp4","",NA,NA,"",NA,NA,NA,NA,"",NA,NA,1226.688,1227.687,0.42281106,-0.286866359,1,0,0,0.996,"Vrai",0,12,12,12,1,NA,NA,"Animated",FALSE,1
"130",NA,NA,"",NA,NA,"842187",1,"2025-03-31_11h38.47.672","Emotion.Memoire.2024","2024.1.5","MacIntel",19.60784314,NA,NA,NA,NA,NA,NA,NA,NA,NA,NA,NA,NA,NA,"IMAGES_EXP_mp4_40/ANIMEES/11-ANIMEES --- NEUTRES /video5.mp4","DISTRACTEURS-40/DIST.FIXES-20/10.NÉGATIFS/Dist.fix.negatif8.mp4","",NA,NA,"",NA,NA,NA,NA,"",NA,NA,1227.688,1228.987,-0.508064516,-0.282258065,1,0,0,1.276,"Faux",0,13,13,13,1,NA,NA,"Fixed",TRUE,1
"131",NA,NA,"",NA,NA,"842187",1,"2025-03-31_11h38.47.672","Emotion.Memoire.2024","2024.1.5","MacIntel",19.60784314,NA,NA,NA,NA,NA,NA,NA,NA,NA,NA,NA,NA,NA,"IMAGES_EXP_mp4_40/ANIMEES/11-ANIMEES --- NEUTRES /video1.mp4","DISTRACTEURS-40/DIST.FIXES-20/10.NEUTRES /Dist.fix.neutre2.mp4","",NA,NA,"",NA,NA,NA,NA,"",NA,NA,1228.988,1230.387,-0.52764977,-0.309907834,1,0,0,1.393,"Faux",0,14,14,14,1,NA,NA,"Fixed",TRUE,1
"132",NA,NA,"",NA,NA,"842187",1,"2025-03-31_11h38.47.672","Emotion.Memoire.2024","2024.1.5","MacIntel",19.60784314,NA,NA,NA,NA,NA,NA,NA,NA,NA,NA,NA,NA,NA,"IMAGES_EXP_mp4_40/ANIMEES/10- ANIMEES --NEGATIVES /Video8.mp4","DISTRACTEURS-40/DIST.FIXES-20/10.NEUTRES /Dist.fix.neutre5.mp4","",NA,NA,"",NA,NA,NA,NA,"",NA,NA,1232.12,1234.152,-0.458525346,-0.306451613,1,0,0,2.028,"Faux",0,16,16,16,1,NA,NA,"Fixed",TRUE,1
"133",NA,NA,"",NA,NA,"842187",1,"2025-03-31_11h38.47.672","Emotion.Memoire.2024","2024.1.5","MacIntel",19.60784314,NA,NA,NA,NA,NA,NA,NA,NA,NA,NA,NA,NA,NA,"IMAGES_EXP_mp4_40/ANIMEES/11-ANIMEES --- NEUTRES /video2.mp4","IMAGES_EXP_mp4_40/FIXES/FIX-NEUTRE-mp4/image5.mp4","",NA,NA,"",NA,NA,NA,NA,"",NA,NA,1234.922,1236.087,0.443548387,-0.307603687,1,0,0,1.162,"Vrai",0,18,18,18,1,NA,NA,"Fixed",FALSE,1
"134",NA,NA,"",NA,NA,"842187",1,"2025-03-31_11h38.47.672","Emotion.Memoire.2024","2024.1.5","MacIntel",19.60784314,NA,NA,NA,NA,NA,NA,NA,NA,NA,NA,NA,NA,NA,"IMAGES_EXP_mp4_40/ANIMEES/10- ANIMEES --NEGATIVES /Video7.mp4","IMAGES_EXP_mp4_40/FIXES/FIX-NEUTRE-mp4/image7.mp4","",NA,NA,"",NA,NA,NA,NA,"",NA,NA,1236.088,1236.819,0.443548387,-0.307603687,1,0,0,0.729,"Vrai",0,19,19,19,1,NA,NA,"Fixed",FALSE,1
"135",NA,NA,"",NA,NA,"842187",1,"2025-03-31_11h38.47.672","Emotion.Memoire.2024","2024.1.5","MacIntel",19.60784314,NA,NA,NA,NA,NA,NA,NA,NA,NA,NA,NA,NA,NA,"IMAGES_EXP_mp4_40/FIXES/FIX-NEUTRE-mp4/image5.mp4","IMAGES_EXP_mp4_40/ANIMEES/10- ANIMEES --NEGATIVES /Video10.mp4","",NA,NA,"",NA,NA,NA,NA,"",NA,NA,1236.821,1237.653,0.443548387,-0.307603687,1,0,0,0.83,"Vrai",0,20,20,20,1,NA,NA,"Animated",FALSE,1
"136",NA,NA,"",NA,NA,"842187",1,"2025-03-31_11h38.47.672","Emotion.Memoire.2024","2024.1.5","MacIntel",19.60784314,NA,NA,NA,NA,NA,NA,NA,NA,NA,NA,NA,NA,NA,"IMAGES_EXP_mp4_40/ANIMEES/11-ANIMEES --- NEUTRES /video3.mp4","IMAGES_EXP_mp4_40/ANIMEES/10- ANIMEES --NEGATIVES /Video4.mp4","",NA,NA,"",NA,NA,NA,NA,"",NA,NA,1237.655,1238.554,0.443548387,-0.307603687,1,0,0,0.897,"Vrai",0,21,21,21,1,NA,NA,"Animated",FALSE,1
"137",NA,NA,"",NA,NA,"842187",1,"2025-03-31_11h38.47.672","Emotion.Memoire.2024","2024.1.5","MacIntel",19.60784314,NA,NA,NA,NA,NA,NA,NA,NA,NA,NA,NA,NA,NA,"IMAGES_EXP_mp4_40/ANIMEES/10- ANIMEES --NEGATIVES /Video5.mp4","IMAGES_EXP_mp4_40/ANIMEES/10- ANIMEES --NEGATIVES /Video5.mp4","",NA,NA,"",NA,NA,NA,NA,"",NA,NA,1238.557,1239.353,0.443548387,-0.307603687,1,0,0,0.795,"Vrai",0,22,22,22,1,NA,NA,"Animated",FALSE,1
"138",NA,NA,"",NA,NA,"842187",1,"2025-03-31_11h38.47.672","Emotion.Memoire.2024","2024.1.5","MacIntel",19.60784314,NA,NA,NA,NA,NA,NA,NA,NA,NA,NA,NA,NA,NA,"IMAGES_EXP_mp4_40/ANIMEES/11-ANIMEES --- NEUTRES /video7.mp4","IMAGES_EXP_mp4_40/ANIMEES/11-ANIMEES --- NEUTRES /video6.mp4","",NA,NA,"",NA,NA,NA,NA,"",NA,NA,1239.355,1240.586,0.443548387,-0.307603687,1,0,0,1.229,"Vrai",0,23,23,23,1,NA,NA,"Animated",FALSE,1
"139",NA,NA,"",NA,NA,"842187",1,"2025-03-31_11h38.47.672","Emotion.Memoire.2024","2024.1.5","MacIntel",19.60784314,NA,NA,NA,NA,NA,NA,NA,NA,NA,NA,NA,NA,NA,"IMAGES_EXP_mp4_40/FIXES/FIX-NEGATIF-mp4/Image8.mp4","IMAGES_EXP_mp4_40/ANIMEES/11-ANIMEES --- NEUTRES /video5.mp4","",NA,NA,"",NA,NA,NA,NA,"",NA,NA,1240.587,1241.52,0.443548387,-0.307603687,1,0,0,0.932,"Vrai",0,24,24,24,1,NA,NA,"Animated",FALSE,1
"140",NA,NA,"",NA,NA,"842187",1,"2025-03-31_11h38.47.672","Emotion.Memoire.2024","2024.1.5","MacIntel",19.60784314,NA,NA,NA,NA,NA,NA,NA,NA,NA,NA,NA,NA,NA,"IMAGES_EXP_mp4_40/ANIMEES/11-ANIMEES --- NEUTRES /video4.mp4","DISTRACTEURS-40/DIST.FIXES-20/10.NEUTRES /Dist.fix.neutre10.mp4","",NA,NA,"",NA,NA,NA,NA,"",NA,NA,1244.159,1246.32,-0.49078341,-0.284562212,1,0,0,2.156,"Faux",0,27,27,27,1,NA,NA,"Fixed",TRUE,1
"141",NA,NA,"",NA,NA,"842187",1,"2025-03-31_11h38.47.672","Emotion.Memoire.2024","2024.1.5","MacIntel",19.60784314,NA,NA,NA,NA,NA,NA,NA,NA,NA,NA,NA,NA,NA,"IMAGES_EXP_mp4_40/FIXES/FIX-NEGATIF-mp4/Image1.mp4","IMAGES_EXP_mp4_40/FIXES/FIX-NEGATIF-mp4/Image3.mp4","",NA,NA,"",NA,NA,NA,NA,"",NA,NA,1246.32,1247.72,0.447004608,-0.315668203,1,0,0,1.399,"Vrai",0,28,28,28,1,NA,NA,"Fixed",FALSE,1
"142",NA,NA,"",NA,NA,"842187",1,"2025-03-31_11h38.47.672","Emotion.Memoire.2024","2024.1.5","MacIntel",19.60784314,NA,NA,NA,NA,NA,NA,NA,NA,NA,NA,NA,NA,NA,"IMAGES_EXP_mp4_40/ANIMEES/10- ANIMEES --NEGATIVES /Video10.mp4","DISTRACTEURS-40/DIST.FIXES-20/10.NÉGATIFS/Dist.fix.negatif6.mp4","",NA,NA,"",NA,NA,NA,NA,"",NA,NA,1247.722,1249.153,-0.474654378,-0.300691244,1,0,0,1.409,"Faux",0,29,29,29,1,NA,NA,"Fixed",TRUE,1
"143",NA,NA,"",NA,NA,"842187",1,"2025-03-31_11h38.47.672","Emotion.Memoire.2024","2024.1.5","MacIntel",19.60784314,NA,NA,NA,NA,NA,NA,NA,NA,NA,NA,NA,NA,NA,"IMAGES_EXP_mp4_40/ANIMEES/11-ANIMEES --- NEUTRES /video8.mp4","IMAGES_EXP_mp4_40/ANIMEES/11-ANIMEES --- NEUTRES /video1.mp4","",NA,NA,"",NA,NA,NA,NA,"",NA,NA,1249.155,1250.22,0.497695853,-0.297235023,1,0,0,1.063,"Vrai",0,30,30,30,1,NA,NA,"Animated",FALSE,1
"144",NA,NA,"",NA,NA,"842187",1,"2025-03-31_11h38.47.672","Emotion.Memoire.2024","2024.1.5","MacIntel",19.60784314,NA,NA,NA,NA,NA,NA,NA,NA,NA,NA,NA,NA,NA,"IMAGES_EXP_mp4_40/FIXES/FIX-NEUTRE-mp4/image6.mp4","IMAGES_EXP_mp4_40/FIXES/FIX-NEUTRE-mp4/image9.mp4","",NA,NA,"",NA,NA,NA,NA,"",NA,NA,1250.222,1250.953,0.497695853,-0.297235023,1,0,0,0.729,"Vrai",0,31,31,31,1,NA,NA,"Fixed",FALSE,1
"145",NA,NA,"",NA,NA,"842187",1,"2025-03-31_11h38.47.672","Emotion.Memoire.2024","2024.1.5","MacIntel",19.60784314,NA,NA,NA,NA,NA,NA,NA,NA,NA,NA,NA,NA,NA,"IMAGES_EXP_mp4_40/ANIMEES/10- ANIMEES --NEGATIVES /Video2.mp4","IMAGES_EXP_mp4_40/ANIMEES/10- ANIMEES --NEGATIVES /Video6.mp4","",NA,NA,"",NA,NA,NA,NA,"",NA,NA,1250.954,1251.853,0.497695853,-0.297235023,1,0,0,0.897,"Vrai",0,32,32,32,1,NA,NA,"Animated",FALSE,1
"146",NA,NA,"",NA,NA,"842187",1,"2025-03-31_11h38.47.672","Emotion.Memoire.2024","2024.1.5","MacIntel",19.60784314,NA,NA,NA,NA,NA,NA,NA,NA,NA,NA,NA,NA,NA,"IMAGES_EXP_mp4_40/ANIMEES/10- ANIMEES --NEGATIVES /Video3.mp4","IMAGES_EXP_mp4_40/ANIMEES/11-ANIMEES --- NEUTRES /video3.mp4","",NA,NA,"",NA,NA,NA,NA,"",NA,NA,1251.854,1252.686,0.497695853,-0.297235023,1,0,0,0.83,"Vrai",0,33,33,33,1,NA,NA,"Animated",FALSE,1
"147",NA,NA,"",NA,NA,"842187",1,"2025-03-31_11h38.47.672","Emotion.Memoire.2024","2024.1.5","MacIntel",19.60784314,NA,NA,NA,NA,NA,NA,NA,NA,NA,NA,NA,NA,NA,"IMAGES_EXP_mp4_40/FIXES/FIX-NEUTRE-mp4/image3.mp4","IMAGES_EXP_mp4_40/ANIMEES/11-ANIMEES --- NEUTRES /video9.mp4","",NA,NA,"",NA,NA,NA,NA,"",NA,NA,1254.188,1255.486,0.457373272,-0.281105991,1,0,0,1.295,"Vrai",0,35,35,35,1,NA,NA,"Animated",FALSE,1
"148",NA,NA,"",NA,NA,"842187",1,"2025-03-31_11h38.47.672","Emotion.Memoire.2024","2024.1.5","MacIntel",19.60784314,NA,NA,NA,NA,NA,NA,NA,NA,NA,NA,NA,NA,NA,"IMAGES_EXP_mp4_40/FIXES/FIX-NEGATIF-mp4/Image7.mp4","IMAGES_EXP_mp4_40/FIXES/FIX-NEGATIF-mp4/Image8.mp4","",NA,NA,"",NA,NA,NA,NA,"",NA,NA,1256.754,1258.187,0.457373272,-0.293778802,1,0,0,1.431,"Vrai",0,37,37,37,1,NA,NA,"Fixed",FALSE,1
"149",NA,NA,"",NA,NA,"842187",1,"2025-03-31_11h38.47.672","Emotion.Memoire.2024","2024.1.5","MacIntel",19.60784314,NA,NA,NA,NA,NA,NA,NA,NA,NA,NA,NA,NA,NA,"IMAGES_EXP_mp4_40/ANIMEES/10- ANIMEES --NEGATIVES /Video6.mp4","IMAGES_EXP_mp4_40/FIXES/FIX-NEUTRE-mp4/image8.mp4","",NA,NA,"",NA,NA,NA,NA,"",NA,NA,1258.188,1259.42,0.550691244,-0.331797235,1,0,0,1.229,"Vrai",0,38,38,38,1,NA,NA,"Fixed",FALSE,1
"150",NA,NA,"",NA,NA,"842187",1,"2025-03-31_11h38.47.672","Emotion.Memoire.2024","2024.1.5","MacIntel",19.60784314,NA,NA,NA,NA,NA,NA,NA,NA,NA,NA,NA,NA,NA,"IMAGES_EXP_mp4_40/FIXES/FIX-NEUTRE-mp4/image1.mp4","IMAGES_EXP_mp4_40/ANIMEES/11-ANIMEES --- NEUTRES /video7.mp4","",NA,NA,"",NA,NA,NA,NA,"",NA,NA,1259.42,1260.42,0.532258065,-0.322580645,1,0,0,0.998,"Vrai",0,39,39,39,1,NA,NA,"Animated",FALSE,1
"151",NA,NA,"",NA,NA,"842187",1,"2025-03-31_11h38.47.672","Emotion.Memoire.2024","2024.1.5","MacIntel",19.60784314,NA,NA,NA,NA,NA,NA,NA,NA,NA,NA,NA,NA,NA,"","DISTRACTEURS-40/DIST.FIXES-20/10.NEUTRES /Dist.fix.neutre9.mp4","",NA,NA,"",NA,NA,NA,NA,"",NA,NA,1262.522,1263.853,-0.535714286,-0.304147465,1,0,0,1.314,"Faux",0,41,41,41,1,NA,NA,"Fixed",TRUE,1
"152",NA,NA,"",NA,NA,"842187",1,"2025-03-31_11h38.47.672","Emotion.Memoire.2024","2024.1.5","MacIntel",19.60784314,NA,NA,NA,NA,NA,NA,NA,NA,NA,NA,NA,NA,NA,"","DISTRACTEURS-40/DIST.FIXES-20/10.NÉGATIFS/Dist.fix.negatif7.mp4","",NA,NA,"",NA,NA,NA,NA,"",NA,NA,1263.854,1264.853,-0.497695853,-0.288018433,1,0,0,0.996,"Faux",0,42,42,42,1,NA,NA,"Fixed",TRUE,1
"153",NA,NA,"",NA,NA,"842187",1,"2025-03-31_11h38.47.672","Emotion.Memoire.2024","2024.1.5","MacIntel",19.60784314,NA,NA,NA,NA,NA,NA,NA,NA,NA,NA,NA,NA,NA,"","DISTRACTEURS-40/DIST.FIXES-20/10.NÉGATIFS/Dist.fix.negatif1.mp4","",NA,NA,"",NA,NA,NA,NA,"",NA,NA,1265.621,1267.72,-0.497695853,-0.288018433,1,0,0,2.085,"Faux",0,44,44,44,1,NA,NA,"Fixed",TRUE,1
"154",NA,NA,"",NA,NA,"842187",1,"2025-03-31_11h38.47.672","Emotion.Memoire.2024","2024.1.5","MacIntel",19.60784314,NA,NA,NA,NA,NA,NA,NA,NA,NA,NA,NA,NA,NA,"","IMAGES_EXP_mp4_40/FIXES/FIX-NEGATIF-mp4/Image4.mp4","",NA,NA,"",NA,NA,NA,NA,"",NA,NA,1270.122,1271.387,0.453917051,-0.322580645,1,0,0,1.262,"Vrai",0,47,47,47,1,NA,NA,"Fixed",FALSE,1
"155",NA,NA,"",NA,NA,"842187",1,"2025-03-31_11h38.47.672","Emotion.Memoire.2024","2024.1.5","MacIntel",19.60784314,NA,NA,NA,NA,NA,NA,NA,NA,NA,NA,NA,NA,NA,"","IMAGES_EXP_mp4_40/ANIMEES/10- ANIMEES --NEGATIVES /Video7.mp4","",NA,NA,"",NA,NA,NA,NA,"",NA,NA,1271.388,1272.187,0.453917051,-0.322580645,1,0,0,0.797,"Vrai",0,48,48,48,1,NA,NA,"Animated",FALSE,1
"156",NA,NA,"",NA,NA,"842187",1,"2025-03-31_11h38.47.672","Emotion.Memoire.2024","2024.1.5","MacIntel",19.60784314,NA,NA,NA,NA,NA,NA,NA,NA,NA,NA,NA,NA,NA,"","IMAGES_EXP_mp4_40/FIXES/FIX-NEUTRE-mp4/image4.mp4","",NA,NA,"",NA,NA,NA,NA,"",NA,NA,1272.188,1273.02,0.453917051,-0.322580645,1,0,0,0.83,"Vrai",0,49,49,49,1,NA,NA,"Fixed",FALSE,1
"157",NA,NA,"",NA,NA,"842187",1,"2025-03-31_11h38.47.672","Emotion.Memoire.2024","2024.1.5","MacIntel",19.60784314,NA,NA,NA,NA,NA,NA,NA,NA,NA,NA,NA,NA,NA,"","DISTRACTEURS-40/DIST.FIXES-20/10.NÉGATIFS/Dist.fix.negatif5.mp4","",NA,NA,"",NA,NA,NA,NA,"",NA,NA,1273.021,1274.255,-0.480414747,-0.299539171,1,0,0,1.231,"Faux",0,50,50,50,1,NA,NA,"Fixed",TRUE,1
"158",NA,NA,"",NA,NA,"842187",1,"2025-03-31_11h38.47.672","Emotion.Memoire.2024","2024.1.5","MacIntel",19.60784314,NA,NA,NA,NA,NA,NA,NA,NA,NA,NA,NA,NA,NA,"","IMAGES_EXP_mp4_40/ANIMEES/11-ANIMEES --- NEUTRES /video2.mp4","",NA,NA,"",NA,NA,NA,NA,"",NA,NA,1275.423,1276.753,0.501152074,-0.315668203,1,0,0,1.327,"Vrai",0,52,52,52,1,NA,NA,"Animated",FALSE,1
"159",NA,NA,"",NA,NA,"842187",1,"2025-03-31_11h38.47.672","Emotion.Memoire.2024","2024.1.5","MacIntel",19.60784314,NA,NA,NA,NA,NA,NA,NA,NA,NA,NA,NA,NA,NA,"","IMAGES_EXP_mp4_40/FIXES/FIX-NEGATIF-mp4/Image7.mp4","",NA,NA,"",NA,NA,NA,NA,"",NA,NA,1278.12,1279.853,0.467741935,-0.279953917,1,0,0,1.731,"Vrai",0,54,54,54,1,NA,NA,"Fixed",FALSE,1
"160",NA,NA,"",NA,NA,"842187",1,"2025-03-31_11h38.47.672","Emotion.Memoire.2024","2024.1.5","MacIntel",19.60784314,NA,NA,NA,NA,NA,NA,NA,NA,NA,NA,NA,NA,NA,"","IMAGES_EXP_mp4_40/FIXES/FIX-NEGATIF-mp4/Image6.mp4","",NA,NA,"",NA,NA,NA,NA,"",NA,NA,1279.854,1281.153,0.514976959,-0.294930876,1,0,0,1.299,"Vrai",0,55,55,55,1,NA,NA,"Fixed",FALSE,1
"161",NA,NA,"",NA,NA,"842187",1,"2025-03-31_11h38.47.672","Emotion.Memoire.2024","2024.1.5","MacIntel",19.60784314,NA,NA,NA,NA,NA,NA,NA,NA,NA,NA,NA,NA,NA,"","IMAGES_EXP_mp4_40/FIXES/FIX-NEGATIF-mp4/Image5.mp4","",NA,NA,"",NA,NA,NA,NA,"",NA,NA,1281.155,1282.753,0.486175115,-0.291474654,1,0,0,1.596,"Vrai",0,56,56,56,1,NA,NA,"Fixed",FALSE,1
"162",NA,NA,"",NA,NA,"842187",1,"2025-03-31_11h38.47.672","Emotion.Memoire.2024","2024.1.5","MacIntel",19.60784314,NA,NA,NA,NA,NA,NA,NA,NA,NA,NA,NA,NA,NA,"","IMAGES_EXP_mp4_40/ANIMEES/11-ANIMEES --- NEUTRES /video10.mp4","",NA,NA,"",NA,NA,NA,NA,"",NA,NA,1282.755,1283.553,0.486175115,-0.291474654,1,0,0,0.796,"Vrai",0,57,57,57,1,NA,NA,"Animated",FALSE,1
"163",NA,NA,"",NA,NA,"842187",1,"2025-03-31_11h38.47.672","Emotion.Memoire.2024","2024.1.5","MacIntel",19.60784314,NA,NA,NA,NA,NA,NA,NA,NA,NA,NA,NA,NA,NA,"","DISTRACTEURS-40/DIST.FIXES-20/10.NEUTRES /Dist.fix.neutre4.mp4","",NA,NA,"",NA,NA,NA,NA,"",NA,NA,1283.554,1284.92,-0.447004608,-0.286866359,1,0,0,1.347,"Faux",0,58,58,58,1,NA,NA,"Fixed",TRUE,1
"164",NA,NA,"",NA,NA,"842187",1,"2025-03-31_11h38.47.672","Emotion.Memoire.2024","2024.1.5","MacIntel",19.60784314,NA,NA,NA,NA,NA,NA,NA,NA,NA,NA,NA,NA,NA,"","IMAGES_EXP_mp4_40/ANIMEES/11-ANIMEES --- NEUTRES /video4.mp4","",NA,NA,"",NA,NA,NA,NA,"",NA,NA,1284.92,1286.353,0.461981567,-0.27764977,1,0,0,1.432,"Vrai",0,59,59,59,1,NA,NA,"Animated",FALSE,1
"165",NA,NA,"",NA,NA,"842187",1,"2025-03-31_11h38.47.672","Emotion.Memoire.2024","2024.1.5","MacIntel",19.60784314,NA,NA,NA,NA,NA,NA,NA,NA,NA,NA,NA,NA,NA,"","DISTRACTEURS-40/DIST.FIXES-20/10.NEUTRES /Dist.fix.neutre6.mp4","",NA,NA,"",NA,NA,NA,NA,"",NA,NA,1286.355,1288.453,-0.42281106,-0.263824885,1,0,0,2.093,"Faux",0,60,60,60,1,NA,NA,"Fixed",TRUE,1
"166",NA,NA,"",NA,NA,"842187",1,"2025-03-31_11h38.47.672","Emotion.Memoire.2024","2024.1.5","MacIntel",19.60784314,NA,NA,NA,NA,NA,NA,NA,NA,NA,NA,NA,NA,NA,"","DISTRACTEURS-40/DIST.FIXES-20/10.NEUTRES /Dist.fix.neutre3.mp4","",NA,NA,"",NA,NA,NA,NA,"",NA,NA,1288.454,1289.486,-0.433179724,-0.269585253,1,0,0,1.025,"Faux",0,61,61,61,1,NA,NA,"Fixed",TRUE,1
"167",NA,NA,"",NA,NA,"842187",1,"2025-03-31_11h38.47.672","Emotion.Memoire.2024","2024.1.5","MacIntel",19.60784314,NA,NA,NA,NA,NA,NA,NA,NA,NA,NA,NA,NA,NA,"","DISTRACTEURS-40/DIST.FIXES-20/10.NÉGATIFS/Dist.fix.negatif10.mp4","",NA,NA,"",NA,NA,NA,NA,"",NA,NA,1289.487,1291.087,-0.433179724,-0.269585253,1,0,0,1.587,"Faux",0,62,62,62,1,NA,NA,"Fixed",TRUE,1
"168",NA,NA,"",NA,NA,"842187",1,"2025-03-31_11h38.47.672","Emotion.Memoire.2024","2024.1.5","MacIntel",19.60784314,NA,NA,NA,NA,NA,NA,NA,NA,NA,NA,NA,NA,NA,"","IMAGES_EXP_mp4_40/ANIMEES/10- ANIMEES --NEGATIVES /Video1.mp4","",NA,NA,"",NA,NA,NA,NA,"",NA,NA,1291.088,1292.653,0.486175115,-0.312211982,1,0,0,1.563,"Vrai",0,63,63,63,1,NA,NA,"Animated",FALSE,1
"169",NA,NA,"",NA,NA,"842187",1,"2025-03-31_11h38.47.672","Emotion.Memoire.2024","2024.1.5","MacIntel",19.60784314,NA,NA,NA,NA,NA,NA,NA,NA,NA,NA,NA,NA,NA,"","DISTRACTEURS-40/DIST.FIXES-20/10.NÉGATIFS/Dist.fix.negatif9.mp4","",NA,NA,"",NA,NA,NA,NA,"",NA,NA,1292.655,1294.42,-0.457373272,-0.278801843,1,0,0,1.726,"Faux",0,64,64,64,1,NA,NA,"Fixed",TRUE,1
"170",NA,NA,"",NA,NA,"842187",1,"2025-03-31_11h38.47.672","Emotion.Memoire.2024","2024.1.5","MacIntel",19.60784314,NA,NA,NA,NA,NA,NA,NA,NA,NA,NA,NA,NA,NA,"","DISTRACTEURS-40/DIST.FIXES-20/10.NÉGATIFS/Dist.fix.negatif2.mp4","",NA,NA,"",NA,NA,NA,NA,"",NA,NA,1294.421,1295.42,-0.461981567,-0.276497696,1,0,0,0.992,"Faux",0,65,65,65,1,NA,NA,"Fixed",TRUE,1
"171",NA,NA,"",NA,NA,"842187",1,"2025-03-31_11h38.47.672","Emotion.Memoire.2024","2024.1.5","MacIntel",19.60784314,NA,NA,NA,NA,NA,NA,NA,NA,NA,NA,NA,NA,NA,"","IMAGES_EXP_mp4_40/FIXES/FIX-NEUTRE-mp4/image10.mp4","",NA,NA,"",NA,NA,NA,NA,"",NA,NA,1295.42,1296.653,0.548387097,-0.290322581,1,0,0,1.232,"Vrai",0,66,66,66,1,NA,NA,"Fixed",FALSE,1
"172",NA,NA,"",NA,NA,"842187",1,"2025-03-31_11h38.47.672","Emotion.Memoire.2024","2024.1.5","MacIntel",19.60784314,NA,NA,NA,NA,NA,NA,NA,NA,NA,NA,NA,NA,NA,"","IMAGES_EXP_mp4_40/FIXES/FIX-NEGATIF-mp4/Image1.mp4","",NA,NA,"",NA,NA,NA,NA,"",NA,NA,1296.654,1297.42,0.548387097,-0.290322581,1,0,0,0.764,"Vrai",0,67,67,67,1,NA,NA,"Fixed",FALSE,1
"173",NA,NA,"",NA,NA,"842187",1,"2025-03-31_11h38.47.672","Emotion.Memoire.2024","2024.1.5","MacIntel",19.60784314,NA,NA,NA,NA,NA,NA,NA,NA,NA,NA,NA,NA,NA,"","IMAGES_EXP_mp4_40/ANIMEES/10- ANIMEES --NEGATIVES /Video3.mp4","",NA,NA,"",NA,NA,NA,NA,"",NA,NA,1297.422,1298.52,0.510368664,-0.292626728,1,0,0,1.097,"Vrai",0,68,68,68,1,NA,NA,"Animated",FALSE,1
"174",NA,NA,"",NA,NA,"842187",1,"2025-03-31_11h38.47.672","Emotion.Memoire.2024","2024.1.5","MacIntel",19.60784314,NA,NA,NA,NA,NA,NA,NA,NA,NA,NA,NA,NA,NA,"","DISTRACTEURS-40/DIST.FIXES-20/10.NEUTRES /Dist.fix.neutre1.mp4","",NA,NA,"",NA,NA,NA,NA,"",NA,NA,1298.522,1299.72,-0.440092166,-0.338709677,1,0,0,1.159,"Faux",0,69,69,69,1,NA,NA,"Fixed",TRUE,1
"175",NA,NA,"",NA,NA,"842187",1,"2025-03-31_11h38.47.672","Emotion.Memoire.2024","2024.1.5","MacIntel",19.60784314,NA,NA,NA,NA,NA,NA,NA,NA,NA,NA,NA,NA,NA,"","DISTRACTEURS-40/DIST.FIXES-20/10.NÉGATIFS/Dist.fix.negatif3.mp4","",NA,NA,"",NA,NA,NA,NA,"",NA,NA,1299.722,1300.521,-0.440092166,-0.338709677,1,0,0,0.773,"Faux",0,70,70,70,1,NA,NA,"Fixed",TRUE,1
"176",NA,NA,"",NA,NA,"842187",1,"2025-03-31_11h38.47.672","Emotion.Memoire.2024","2024.1.5","MacIntel",19.60784314,NA,NA,NA,NA,NA,NA,NA,NA,NA,NA,NA,NA,NA,"","IMAGES_EXP_mp4_40/FIXES/FIX-NEUTRE-mp4/image3.mp4","",NA,NA,"",NA,NA,NA,NA,"",NA,NA,1300.522,1301.72,0.524193548,-0.298387097,1,0,0,1.194,"Vrai",0,71,71,71,1,NA,NA,"Fixed",FALSE,1
"177",NA,NA,"",NA,NA,"842187",1,"2025-03-31_11h38.47.672","Emotion.Memoire.2024","2024.1.5","MacIntel",19.60784314,NA,NA,NA,NA,NA,NA,NA,NA,NA,NA,NA,NA,NA,"","IMAGES_EXP_mp4_40/FIXES/FIX-NEGATIF-mp4/Image10.mp4","",NA,NA,"",NA,NA,NA,NA,"",NA,NA,1301.72,1302.853,0.491935484,-0.296082949,1,0,0,1.132,"Vrai",0,72,72,72,1,NA,NA,"Fixed",FALSE,1
"178",NA,NA,"",NA,NA,"842187",1,"2025-03-31_11h38.47.672","Emotion.Memoire.2024","2024.1.5","MacIntel",19.60784314,NA,NA,NA,NA,NA,NA,NA,NA,NA,NA,NA,NA,NA,"","IMAGES_EXP_mp4_40/FIXES/FIX-NEUTRE-mp4/image1.mp4","",NA,NA,"",NA,NA,NA,NA,"",NA,NA,1302.854,1303.72,0.491935484,-0.296082949,1,0,0,0.864,"Vrai",0,73,73,73,1,NA,NA,"Fixed",FALSE,1
"179",NA,NA,"",NA,NA,"842187",1,"2025-03-31_11h38.47.672","Emotion.Memoire.2024","2024.1.5","MacIntel",19.60784314,NA,NA,NA,NA,NA,NA,NA,NA,NA,NA,NA,NA,NA,"","DISTRACTEURS-40/DIST.FIXES-20/10.NÉGATIFS/Dist.fix.negatif4.mp4","",NA,NA,"",NA,NA,NA,NA,"",NA,NA,1304.957,1306.02,-0.460829493,-0.316820276,1,0,0,1.053,"Faux",0,75,75,75,1,NA,NA,"Fixed",TRUE,1
"180",NA,NA,"",NA,NA,"842187",1,"2025-03-31_11h38.47.672","Emotion.Memoire.2024","2024.1.5","MacIntel",19.60784314,NA,NA,NA,NA,NA,NA,NA,NA,NA,NA,NA,NA,NA,"","IMAGES_EXP_mp4_40/ANIMEES/10- ANIMEES --NEGATIVES /Video9.mp4","",NA,NA,"",NA,NA,NA,NA,"",NA,NA,1307.721,1309.12,0.5,-0.305299539,1,0,0,1.397,"Vrai",0,78,78,78,1,NA,NA,"Animated",FALSE,1
"181",NA,NA,"",NA,NA,"924827",1,"2025-04-16_00h31.25.802","Emotion.Memoire.2024","2024.1.5","MacIntel",30.03003003,NA,NA,NA,NA,NA,NA,NA,NA,NA,NA,NA,NA,NA,"IMAGES_EXP_mp4_40/FIXES/FIX-NEGATIF-mp4/Image3.mp4","IMAGES_EXP_mp4_40/ANIMEES/10- ANIMEES --NEGATIVES /Video2.mp4","DISTRACTEURS-40/DIST.FIXES-20/10.NÉGATIFS/Dist.fix.negatif5.mp4",NA,NA,"",NA,NA,NA,NA,"",NA,NA,756.8406,758.4403,0.475943875,-0.279522705,1,0,0,1.5986,"Vrai",0,2,2,2,1,NA,NA,"Animated",FALSE,1
"182",NA,NA,"",NA,NA,"924827",1,"2025-04-16_00h31.25.802","Emotion.Memoire.2024","2024.1.5","MacIntel",30.03003003,NA,NA,NA,NA,NA,NA,NA,NA,NA,NA,NA,NA,NA,"IMAGES_EXP_mp4_40/FIXES/FIX-NEGATIF-mp4/Image4.mp4","IMAGES_EXP_mp4_40/FIXES/FIX-NEUTRE-mp4/image6.mp4","",NA,NA,"",NA,NA,NA,NA,"",NA,NA,758.441,759.4395,0.477917752,-0.304387614,1,0,0,0.9977,"Vrai",0,3,3,3,1,NA,NA,"Fixed",FALSE,1
"183",NA,NA,"",NA,NA,"924827",1,"2025-04-16_00h31.25.802","Emotion.Memoire.2024","2024.1.5","MacIntel",30.03003003,NA,NA,NA,NA,NA,NA,NA,NA,NA,NA,NA,NA,NA,"IMAGES_EXP_mp4_40/FIXES/FIX-NEGATIF-mp4/Image10.mp4","IMAGES_EXP_mp4_40/FIXES/FIX-NEUTRE-mp4/image2.mp4","",NA,NA,"",NA,NA,NA,NA,"",NA,NA,759.44,760.5394,0.476196696,-0.302719252,1,0,0,1.0989,"Vrai",0,4,4,4,1,NA,NA,"Fixed",FALSE,1
"184",NA,NA,"",NA,NA,"924827",1,"2025-04-16_00h31.25.802","Emotion.Memoire.2024","2024.1.5","MacIntel",30.03003003,NA,NA,NA,NA,NA,NA,NA,NA,NA,NA,NA,NA,NA,"IMAGES_EXP_mp4_40/ANIMEES/11-ANIMEES --- NEUTRES /video10.mp4","DISTRACTEURS-40/DIST.FIXES-20/10.NEUTRES /Dist.fix.neutre7.mp4","",NA,NA,"",NA,NA,NA,NA,"",NA,NA,760.5398,762.7851,-0.482613763,-0.299592692,1,0,0,2.2438,"Faux",0,5,5,5,1,NA,NA,"Fixed",TRUE,1
"185",NA,NA,"",NA,NA,"924827",1,"2025-04-16_00h31.25.802","Emotion.Memoire.2024","2024.1.5","MacIntel",30.03003003,NA,NA,NA,NA,NA,NA,NA,NA,NA,NA,NA,NA,NA,"IMAGES_EXP_mp4_40/FIXES/FIX-NEUTRE-mp4/image10.mp4","IMAGES_EXP_mp4_40/FIXES/FIX-NEGATIF-mp4/Image2.mp4","",NA,NA,"",NA,NA,NA,NA,"",NA,NA,767.1731,775.806,-0.482003988,-0.286532796,1,0,0,8.6318,"Faux",0,7,7,7,1,NA,NA,"Fixed",FALSE,0
"186",NA,NA,"",NA,NA,"924827",1,"2025-04-16_00h31.25.802","Emotion.Memoire.2024","2024.1.5","MacIntel",30.03003003,NA,NA,NA,NA,NA,NA,NA,NA,NA,NA,NA,NA,NA,"IMAGES_EXP_mp4_40/ANIMEES/10- ANIMEES --NEGATIVES /Video1.mp4","IMAGES_EXP_mp4_40/FIXES/FIX-NEGATIF-mp4/Image9.mp4","",NA,NA,"",NA,NA,NA,NA,"",NA,NA,775.8065,777.8724,0.487918837,-0.300618286,1,0,0,2.0648,"Vrai",0,8,8,8,1,NA,NA,"Fixed",FALSE,1
"187",NA,NA,"",NA,NA,"924827",1,"2025-04-16_00h31.25.802","Emotion.Memoire.2024","2024.1.5","MacIntel",30.03003003,NA,NA,NA,NA,NA,NA,NA,NA,NA,NA,NA,NA,NA,"IMAGES_EXP_mp4_40/FIXES/FIX-NEUTRE-mp4/image4.mp4","DISTRACTEURS-40/DIST.FIXES-20/10.NEUTRES /Dist.fix.neutre8.mp4","",NA,NA,"",NA,NA,NA,NA,"",NA,NA,777.8733,781.7427,-0.490803596,-0.289866469,1,0,0,3.8685,"Faux",0,9,9,9,1,NA,NA,"Fixed",TRUE,1
"188",NA,NA,"",NA,NA,"924827",1,"2025-04-16_00h31.25.802","Emotion.Memoire.2024","2024.1.5","MacIntel",30.03003003,NA,NA,NA,NA,NA,NA,NA,NA,NA,NA,NA,NA,NA,"IMAGES_EXP_mp4_40/ANIMEES/11-ANIMEES --- NEUTRES /video9.mp4","IMAGES_EXP_mp4_40/ANIMEES/11-ANIMEES --- NEUTRES /video8.mp4","",NA,NA,"",NA,NA,NA,NA,"",NA,NA,783.2734,784.6735,0.47277181,-0.320880195,1,0,0,1.3983,"Vrai",0,11,11,11,1,NA,NA,"Animated",FALSE,1
"189",NA,NA,"",NA,NA,"924827",1,"2025-04-16_00h31.25.802","Emotion.Memoire.2024","2024.1.5","MacIntel",30.03003003,NA,NA,NA,NA,NA,NA,NA,NA,NA,NA,NA,NA,NA,"IMAGES_EXP_mp4_40/FIXES/FIX-NEUTRE-mp4/image8.mp4","IMAGES_EXP_mp4_40/ANIMEES/10- ANIMEES --NEGATIVES /Video8.mp4","",NA,NA,"",NA,NA,NA,NA,"",NA,NA,784.674,786.5056,0.47277181,-0.320880195,1,0,0,1.8302,"Vrai",0,12,12,12,1,NA,NA,"Animated",FALSE,1
"190",NA,NA,"",NA,NA,"924827",1,"2025-04-16_00h31.25.802","Emotion.Memoire.2024","2024.1.5","MacIntel",30.03003003,NA,NA,NA,NA,NA,NA,NA,NA,NA,NA,NA,NA,NA,"IMAGES_EXP_mp4_40/ANIMEES/11-ANIMEES --- NEUTRES /video5.mp4","DISTRACTEURS-40/DIST.FIXES-20/10.NÉGATIFS/Dist.fix.negatif8.mp4","",NA,NA,"",NA,NA,NA,NA,"",NA,NA,786.5061,788.7056,-0.458156297,-0.293168335,1,0,0,2.1982,"Faux",0,13,13,13,1,NA,NA,"Fixed",TRUE,1
"191",NA,NA,"",NA,NA,"924827",1,"2025-04-16_00h31.25.802","Emotion.Memoire.2024","2024.1.5","MacIntel",30.03003003,NA,NA,NA,NA,NA,NA,NA,NA,NA,NA,NA,NA,NA,"IMAGES_EXP_mp4_40/ANIMEES/11-ANIMEES --- NEUTRES /video1.mp4","DISTRACTEURS-40/DIST.FIXES-20/10.NEUTRES /Dist.fix.neutre2.mp4","",NA,NA,"",NA,NA,NA,NA,"",NA,NA,788.7061,790.7068,-0.483875597,-0.288443943,1,0,0,1.9969,"Faux",0,14,14,14,1,NA,NA,"Fixed",TRUE,1
"192",NA,NA,"",NA,NA,"924827",1,"2025-04-16_00h31.25.802","Emotion.Memoire.2024","2024.1.5","MacIntel",30.03003003,NA,NA,NA,NA,NA,NA,NA,NA,NA,NA,NA,NA,NA,"IMAGES_EXP_mp4_40/ANIMEES/10- ANIMEES --NEGATIVES /Video8.mp4","DISTRACTEURS-40/DIST.FIXES-20/10.NEUTRES /Dist.fix.neutre5.mp4","",NA,NA,"",NA,NA,NA,NA,"",NA,NA,792.2409,793.7291,-0.483875597,-0.288443943,1,0,0,1.4869,"Faux",0,16,16,16,1,NA,NA,"Fixed",TRUE,1
"193",NA,NA,"",NA,NA,"924827",1,"2025-04-16_00h31.25.802","Emotion.Memoire.2024","2024.1.5","MacIntel",30.03003003,NA,NA,NA,NA,NA,NA,NA,NA,NA,NA,NA,NA,NA,"IMAGES_EXP_mp4_40/ANIMEES/11-ANIMEES --- NEUTRES /video2.mp4","IMAGES_EXP_mp4_40/FIXES/FIX-NEUTRE-mp4/image5.mp4","",NA,NA,"",NA,NA,NA,NA,"",NA,NA,794.6412,796.0726,0.549215224,-0.278967217,1,0,0,1.4171,"Vrai",0,18,18,18,1,NA,NA,"Fixed",FALSE,1
"194",NA,NA,"",NA,NA,"924827",1,"2025-04-16_00h31.25.802","Emotion.Memoire.2024","2024.1.5","MacIntel",30.03003003,NA,NA,NA,NA,NA,NA,NA,NA,NA,NA,NA,NA,NA,"IMAGES_EXP_mp4_40/ANIMEES/10- ANIMEES --NEGATIVES /Video7.mp4","IMAGES_EXP_mp4_40/FIXES/FIX-NEUTRE-mp4/image7.mp4","",NA,NA,"",NA,NA,NA,NA,"",NA,NA,796.0732,796.9397,0.517854953,-0.290698446,1,0,0,0.8651,"Vrai",0,19,19,19,1,NA,NA,"Fixed",FALSE,1
"195",NA,NA,"",NA,NA,"924827",1,"2025-04-16_00h31.25.802","Emotion.Memoire.2024","2024.1.5","MacIntel",30.03003003,NA,NA,NA,NA,NA,NA,NA,NA,NA,NA,NA,NA,NA,"IMAGES_EXP_mp4_40/FIXES/FIX-NEUTRE-mp4/image5.mp4","IMAGES_EXP_mp4_40/ANIMEES/10- ANIMEES --NEGATIVES /Video10.mp4","",NA,NA,"",NA,NA,NA,NA,"",NA,NA,796.9403,797.8389,0.517854953,-0.290698446,1,0,0,0.8972,"Vrai",0,20,20,20,1,NA,NA,"Animated",FALSE,1
"196",NA,NA,"",NA,NA,"924827",1,"2025-04-16_00h31.25.802","Emotion.Memoire.2024","2024.1.5","MacIntel",30.03003003,NA,NA,NA,NA,NA,NA,NA,NA,NA,NA,NA,NA,NA,"IMAGES_EXP_mp4_40/ANIMEES/11-ANIMEES --- NEUTRES /video3.mp4","IMAGES_EXP_mp4_40/ANIMEES/10- ANIMEES --NEGATIVES /Video4.mp4","",NA,NA,"",NA,NA,NA,NA,"",NA,NA,797.8394,798.7385,0.517854953,-0.290698446,1,0,0,0.898,"Vrai",0,21,21,21,1,NA,NA,"Animated",FALSE,1
"197",NA,NA,"",NA,NA,"924827",1,"2025-04-16_00h31.25.802","Emotion.Memoire.2024","2024.1.5","MacIntel",30.03003003,NA,NA,NA,NA,NA,NA,NA,NA,NA,NA,NA,NA,NA,"IMAGES_EXP_mp4_40/ANIMEES/10- ANIMEES --NEGATIVES /Video5.mp4","IMAGES_EXP_mp4_40/ANIMEES/10- ANIMEES --NEGATIVES /Video5.mp4","",NA,NA,"",NA,NA,NA,NA,"",NA,NA,798.7388,800.5398,0.517854953,-0.290698446,1,0,0,1.8001,"Vrai",0,22,22,22,1,NA,NA,"Animated",FALSE,1
"198",NA,NA,"",NA,NA,"924827",1,"2025-04-16_00h31.25.802","Emotion.Memoire.2024","2024.1.5","MacIntel",30.03003003,NA,NA,NA,NA,NA,NA,NA,NA,NA,NA,NA,NA,NA,"IMAGES_EXP_mp4_40/ANIMEES/11-ANIMEES --- NEUTRES /video7.mp4","IMAGES_EXP_mp4_40/ANIMEES/11-ANIMEES --- NEUTRES /video6.mp4","",NA,NA,"",NA,NA,NA,NA,"",NA,NA,800.5403,801.5395,0.517854953,-0.290698446,1,0,0,0.9981,"Vrai",0,23,23,23,1,NA,NA,"Animated",FALSE,1
"199",NA,NA,"",NA,NA,"924827",1,"2025-04-16_00h31.25.802","Emotion.Memoire.2024","2024.1.5","MacIntel",30.03003003,NA,NA,NA,NA,NA,NA,NA,NA,NA,NA,NA,NA,NA,"IMAGES_EXP_mp4_40/FIXES/FIX-NEGATIF-mp4/Image8.mp4","IMAGES_EXP_mp4_40/ANIMEES/11-ANIMEES --- NEUTRES /video5.mp4","",NA,NA,"",NA,NA,NA,NA,"",NA,NA,801.5415,802.3063,0.517854953,-0.290698446,1,0,0,0.7634,"Vrai",0,24,24,24,1,NA,NA,"Animated",FALSE,1
"200",NA,NA,"",NA,NA,"924827",1,"2025-04-16_00h31.25.802","Emotion.Memoire.2024","2024.1.5","MacIntel",30.03003003,NA,NA,NA,NA,NA,NA,NA,NA,NA,NA,NA,NA,NA,"IMAGES_EXP_mp4_40/ANIMEES/11-ANIMEES --- NEUTRES /video4.mp4","DISTRACTEURS-40/DIST.FIXES-20/10.NEUTRES /Dist.fix.neutre10.mp4","",NA,NA,"",NA,NA,NA,NA,"",NA,NA,806.0389,807.4718,-0.492921482,-0.290013563,1,0,0,1.4321,"Faux",0,27,27,27,1,NA,NA,"Fixed",TRUE,1
"201",NA,NA,"",NA,NA,"924827",1,"2025-04-16_00h31.25.802","Emotion.Memoire.2024","2024.1.5","MacIntel",30.03003003,NA,NA,NA,NA,NA,NA,NA,NA,NA,NA,NA,NA,NA,"IMAGES_EXP_mp4_40/FIXES/FIX-NEGATIF-mp4/Image1.mp4","IMAGES_EXP_mp4_40/FIXES/FIX-NEGATIF-mp4/Image3.mp4","",NA,NA,"",NA,NA,NA,NA,"",NA,NA,807.4728,809.0399,0.460429823,-0.293805474,1,0,0,1.5661,"Vrai",0,28,28,28,1,NA,NA,"Fixed",FALSE,1
"202",NA,NA,"",NA,NA,"924827",1,"2025-04-16_00h31.25.802","Emotion.Memoire.2024","2024.1.5","MacIntel",30.03003003,NA,NA,NA,NA,NA,NA,NA,NA,NA,NA,NA,NA,NA,"IMAGES_EXP_mp4_40/ANIMEES/10- ANIMEES --NEGATIVES /Video10.mp4","DISTRACTEURS-40/DIST.FIXES-20/10.NÉGATIFS/Dist.fix.negatif6.mp4","",NA,NA,"",NA,NA,NA,NA,"",NA,NA,809.0404,810.907,-0.491592712,-0.291616889,1,0,0,1.8654,"Faux",0,29,29,29,1,NA,NA,"Fixed",TRUE,1
"203",NA,NA,"",NA,NA,"924827",1,"2025-04-16_00h31.25.802","Emotion.Memoire.2024","2024.1.5","MacIntel",30.03003003,NA,NA,NA,NA,NA,NA,NA,NA,NA,NA,NA,NA,NA,"IMAGES_EXP_mp4_40/ANIMEES/11-ANIMEES --- NEUTRES /video8.mp4","IMAGES_EXP_mp4_40/ANIMEES/11-ANIMEES --- NEUTRES /video1.mp4","",NA,NA,"",NA,NA,NA,NA,"",NA,NA,810.9075,812.7387,0.51757053,-0.289238756,1,0,0,1.8302,"Vrai",0,30,30,30,1,NA,NA,"Animated",FALSE,1
"204",NA,NA,"",NA,NA,"924827",1,"2025-04-16_00h31.25.802","Emotion.Memoire.2024","2024.1.5","MacIntel",30.03003003,NA,NA,NA,NA,NA,NA,NA,NA,NA,NA,NA,NA,NA,"IMAGES_EXP_mp4_40/FIXES/FIX-NEUTRE-mp4/image6.mp4","IMAGES_EXP_mp4_40/FIXES/FIX-NEUTRE-mp4/image9.mp4","",NA,NA,"",NA,NA,NA,NA,"",NA,NA,812.7392,817.4722,0.514588487,-0.302142741,1,0,0,4.7317,"Vrai",0,31,31,31,1,NA,NA,"Fixed",FALSE,1
"205",NA,NA,"",NA,NA,"924827",1,"2025-04-16_00h31.25.802","Emotion.Memoire.2024","2024.1.5","MacIntel",30.03003003,NA,NA,NA,NA,NA,NA,NA,NA,NA,NA,NA,NA,NA,"IMAGES_EXP_mp4_40/ANIMEES/10- ANIMEES --NEGATIVES /Video2.mp4","IMAGES_EXP_mp4_40/ANIMEES/10- ANIMEES --NEGATIVES /Video6.mp4","",NA,NA,"",NA,NA,NA,NA,"",NA,NA,817.4726,818.7061,0.518806966,-0.318054131,1,0,0,1.2325,"Vrai",0,32,32,32,1,NA,NA,"Animated",FALSE,1
"206",NA,NA,"",NA,NA,"924827",1,"2025-04-16_00h31.25.802","Emotion.Memoire.2024","2024.1.5","MacIntel",30.03003003,NA,NA,NA,NA,NA,NA,NA,NA,NA,NA,NA,NA,NA,"IMAGES_EXP_mp4_40/ANIMEES/10- ANIMEES --NEGATIVES /Video3.mp4","IMAGES_EXP_mp4_40/ANIMEES/11-ANIMEES --- NEUTRES /video3.mp4","",NA,NA,"",NA,NA,NA,NA,"",NA,NA,818.7067,819.5057,0.518806966,-0.318054131,1,0,0,0.7981,"Vrai",0,33,33,33,1,NA,NA,"Animated",FALSE,1
"207",NA,NA,"",NA,NA,"924827",1,"2025-04-16_00h31.25.802","Emotion.Memoire.2024","2024.1.5","MacIntel",30.03003003,NA,NA,NA,NA,NA,NA,NA,NA,NA,NA,NA,NA,NA,"IMAGES_EXP_mp4_40/FIXES/FIX-NEUTRE-mp4/image3.mp4","IMAGES_EXP_mp4_40/ANIMEES/11-ANIMEES --- NEUTRES /video9.mp4","",NA,NA,"",NA,NA,NA,NA,"",NA,NA,821.3736,822.9729,0.473846571,-0.30299825,1,0,0,1.5984,"Vrai",0,35,35,35,1,NA,NA,"Animated",FALSE,1
"208",NA,NA,"",NA,NA,"924827",1,"2025-04-16_00h31.25.802","Emotion.Memoire.2024","2024.1.5","MacIntel",30.03003003,NA,NA,NA,NA,NA,NA,NA,NA,NA,NA,NA,NA,NA,"IMAGES_EXP_mp4_40/FIXES/FIX-NEGATIF-mp4/Image7.mp4","IMAGES_EXP_mp4_40/FIXES/FIX-NEGATIF-mp4/Image8.mp4","",NA,NA,"",NA,NA,NA,NA,"",NA,NA,824.6395,825.8724,0.490709229,-0.31916158,1,0,0,1.2321,"Vrai",0,37,37,37,1,NA,NA,"Fixed",FALSE,1
"209",NA,NA,"",NA,NA,"924827",1,"2025-04-16_00h31.25.802","Emotion.Memoire.2024","2024.1.5","MacIntel",30.03003003,NA,NA,NA,NA,NA,NA,NA,NA,NA,NA,NA,NA,NA,"IMAGES_EXP_mp4_40/ANIMEES/10- ANIMEES --NEGATIVES /Video6.mp4","IMAGES_EXP_mp4_40/FIXES/FIX-NEUTRE-mp4/image8.mp4","",NA,NA,"",NA,NA,NA,NA,"",NA,NA,825.8728,827.5393,0.452793376,-0.325615506,1,0,0,1.6656,"Vrai",0,38,38,38,1,NA,NA,"Fixed",FALSE,1
"210",NA,NA,"",NA,NA,"924827",1,"2025-04-16_00h31.25.802","Emotion.Memoire.2024","2024.1.5","MacIntel",30.03003003,NA,NA,NA,NA,NA,NA,NA,NA,NA,NA,NA,NA,NA,"IMAGES_EXP_mp4_40/FIXES/FIX-NEUTRE-mp4/image1.mp4","IMAGES_EXP_mp4_40/ANIMEES/11-ANIMEES --- NEUTRES /video7.mp4","",NA,NA,"",NA,NA,NA,NA,"",NA,NA,827.5397,828.7398,0.465864393,-0.309058567,1,0,0,1.1993,"Vrai",0,39,39,39,1,NA,NA,"Animated",FALSE,1
"211",NA,NA,"",NA,NA,"924827",1,"2025-04-16_00h31.25.802","Emotion.Memoire.2024","2024.1.5","MacIntel",30.03003003,NA,NA,NA,NA,NA,NA,NA,NA,NA,NA,NA,NA,NA,"","DISTRACTEURS-40/DIST.FIXES-20/10.NEUTRES /Dist.fix.neutre9.mp4","",NA,NA,"",NA,NA,NA,NA,"",NA,NA,830.5064,832.1059,-0.463131443,-0.294162937,1,0,0,1.5984,"Faux",0,41,41,41,1,NA,NA,"Fixed",TRUE,1
"212",NA,NA,"",NA,NA,"924827",1,"2025-04-16_00h31.25.802","Emotion.Memoire.2024","2024.1.5","MacIntel",30.03003003,NA,NA,NA,NA,NA,NA,NA,NA,NA,NA,NA,NA,NA,"","DISTRACTEURS-40/DIST.FIXES-20/10.NÉGATIFS/Dist.fix.negatif7.mp4","",NA,NA,"",NA,NA,NA,NA,"",NA,NA,832.1063,833.7346,-0.463131443,-0.294162937,1,0,0,1.6273,"Faux",0,42,42,42,1,NA,NA,"Fixed",TRUE,1
"213",NA,NA,"",NA,NA,"924827",1,"2025-04-16_00h31.25.802","Emotion.Memoire.2024","2024.1.5","MacIntel",30.03003003,NA,NA,NA,NA,NA,NA,NA,NA,NA,NA,NA,NA,NA,"","DISTRACTEURS-40/DIST.FIXES-20/10.NÉGATIFS/Dist.fix.negatif1.mp4","",NA,NA,"",NA,NA,NA,NA,"",NA,NA,834.7382,835.8063,-0.463131443,-0.294162937,1,0,0,1.0675,"Faux",0,44,44,44,1,NA,NA,"Fixed",TRUE,1
"214",NA,NA,"",NA,NA,"924827",1,"2025-04-16_00h31.25.802","Emotion.Memoire.2024","2024.1.5","MacIntel",30.03003003,NA,NA,NA,NA,NA,NA,NA,NA,NA,NA,NA,NA,NA,"","IMAGES_EXP_mp4_40/FIXES/FIX-NEGATIF-mp4/Image4.mp4","",NA,NA,"",NA,NA,NA,NA,"",NA,NA,838.0384,839.3716,0.497009277,-0.262915378,1,0,0,1.3326,"Vrai",0,47,47,47,1,NA,NA,"Fixed",FALSE,1
"215",NA,NA,"",NA,NA,"924827",1,"2025-04-16_00h31.25.802","Emotion.Memoire.2024","2024.1.5","MacIntel",30.03003003,NA,NA,NA,NA,NA,NA,NA,NA,NA,NA,NA,NA,NA,"","IMAGES_EXP_mp4_40/ANIMEES/10- ANIMEES --NEGATIVES /Video7.mp4","",NA,NA,"",NA,NA,NA,NA,"",NA,NA,839.372,840.5384,0.497009277,-0.262915378,1,0,0,1.1547,"Vrai",0,48,48,48,1,NA,NA,"Animated",FALSE,1
"216",NA,NA,"",NA,NA,"924827",1,"2025-04-16_00h31.25.802","Emotion.Memoire.2024","2024.1.5","MacIntel",30.03003003,NA,NA,NA,NA,NA,NA,NA,NA,NA,NA,NA,NA,NA,"","IMAGES_EXP_mp4_40/FIXES/FIX-NEUTRE-mp4/image4.mp4","",NA,NA,"",NA,NA,NA,NA,"",NA,NA,840.5387,841.4054,0.497009277,-0.262915378,1,0,0,0.8325,"Vrai",0,49,49,49,1,NA,NA,"Fixed",FALSE,1
"217",NA,NA,"",NA,NA,"924827",1,"2025-04-16_00h31.25.802","Emotion.Memoire.2024","2024.1.5","MacIntel",30.03003003,NA,NA,NA,NA,NA,NA,NA,NA,NA,NA,NA,NA,NA,"","DISTRACTEURS-40/DIST.FIXES-20/10.NÉGATIFS/Dist.fix.negatif5.mp4","",NA,NA,"",NA,NA,NA,NA,"",NA,NA,841.4058,843.3723,-0.460168321,-0.303426242,1,0,0,1.9467,"Faux",0,50,50,50,1,NA,NA,"Fixed",TRUE,1
"218",NA,NA,"",NA,NA,"924827",1,"2025-04-16_00h31.25.802","Emotion.Memoire.2024","2024.1.5","MacIntel",30.03003003,NA,NA,NA,NA,NA,NA,NA,NA,NA,NA,NA,NA,NA,"","IMAGES_EXP_mp4_40/ANIMEES/11-ANIMEES --- NEUTRES /video2.mp4","",NA,NA,"",NA,NA,NA,NA,"",NA,NA,845.0387,846.3724,0.496418186,-0.306403537,1,0,0,1.3324,"Vrai",0,52,52,52,1,NA,NA,"Animated",FALSE,1
"219",NA,NA,"",NA,NA,"924827",1,"2025-04-16_00h31.25.802","Emotion.Memoire.2024","2024.1.5","MacIntel",30.03003003,NA,NA,NA,NA,NA,NA,NA,NA,NA,NA,NA,NA,NA,"","IMAGES_EXP_mp4_40/FIXES/FIX-NEGATIF-mp4/Image7.mp4","",NA,NA,"",NA,NA,NA,NA,"",NA,NA,848.5415,859.4402,0.471080051,-0.316192627,1,0,0,10.8966,"Vrai",0,54,54,54,1,NA,NA,"Fixed",FALSE,1
"220",NA,NA,"",NA,NA,"924827",1,"2025-04-16_00h31.25.802","Emotion.Memoire.2024","2024.1.5","MacIntel",30.03003003,NA,NA,NA,NA,NA,NA,NA,NA,NA,NA,NA,NA,NA,"","IMAGES_EXP_mp4_40/FIXES/FIX-NEGATIF-mp4/Image6.mp4","",NA,NA,"",NA,NA,NA,NA,"",NA,NA,859.442,860.6115,0.470561388,-0.316192627,1,0,0,1.1657,"Vrai",0,55,55,55,1,NA,NA,"Fixed",FALSE,1
"221",NA,NA,"",NA,NA,"924827",1,"2025-04-16_00h31.25.802","Emotion.Memoire.2024","2024.1.5","MacIntel",30.03003003,NA,NA,NA,NA,NA,NA,NA,NA,NA,NA,NA,NA,NA,"","IMAGES_EXP_mp4_40/FIXES/FIX-NEGATIF-mp4/Image5.mp4","",NA,NA,"",NA,NA,NA,NA,"",NA,NA,860.6128,861.5446,0.470561388,-0.316192627,1,0,0,0.9264,"Vrai",0,56,56,56,1,NA,NA,"Fixed",FALSE,1
"222",NA,NA,"",NA,NA,"924827",1,"2025-04-16_00h31.25.802","Emotion.Memoire.2024","2024.1.5","MacIntel",30.03003003,NA,NA,NA,NA,NA,NA,NA,NA,NA,NA,NA,NA,NA,"","IMAGES_EXP_mp4_40/ANIMEES/11-ANIMEES --- NEUTRES /video10.mp4","",NA,NA,"",NA,NA,NA,NA,"",NA,NA,861.5451,862.5248,0.470561388,-0.316192627,1,0,0,0.9705,"Vrai",0,57,57,57,1,NA,NA,"Animated",FALSE,1
"223",NA,NA,"",NA,NA,"924827",1,"2025-04-16_00h31.25.802","Emotion.Memoire.2024","2024.1.5","MacIntel",30.03003003,NA,NA,NA,NA,NA,NA,NA,NA,NA,NA,NA,NA,NA,"","DISTRACTEURS-40/DIST.FIXES-20/10.NEUTRES /Dist.fix.neutre4.mp4","",NA,NA,"",NA,NA,NA,NA,"",NA,NA,862.5254,864.4406,-0.489467638,-0.281306763,1,0,0,1.9135,"Faux",0,58,58,58,1,NA,NA,"Fixed",TRUE,1
"224",NA,NA,"",NA,NA,"924827",1,"2025-04-16_00h31.25.802","Emotion.Memoire.2024","2024.1.5","MacIntel",30.03003003,NA,NA,NA,NA,NA,NA,NA,NA,NA,NA,NA,NA,NA,"","IMAGES_EXP_mp4_40/ANIMEES/11-ANIMEES --- NEUTRES /video4.mp4","",NA,NA,"",NA,NA,NA,NA,"",NA,NA,864.4418,865.8171,0.496081814,-0.315224609,1,0,0,1.3727,"Vrai",0,59,59,59,1,NA,NA,"Animated",FALSE,1
"225",NA,NA,"",NA,NA,"924827",1,"2025-04-16_00h31.25.802","Emotion.Memoire.2024","2024.1.5","MacIntel",30.03003003,NA,NA,NA,NA,NA,NA,NA,NA,NA,NA,NA,NA,NA,"","DISTRACTEURS-40/DIST.FIXES-20/10.NEUTRES /Dist.fix.neutre6.mp4","",NA,NA,"",NA,NA,NA,NA,"",NA,NA,865.8176,867.8889,-0.484602254,-0.282292345,1,0,0,2.0701,"Faux",0,60,60,60,1,NA,NA,"Fixed",TRUE,1
"226",NA,NA,"",NA,NA,"924827",1,"2025-04-16_00h31.25.802","Emotion.Memoire.2024","2024.1.5","MacIntel",30.03003003,NA,NA,NA,NA,NA,NA,NA,NA,NA,NA,NA,NA,NA,"","DISTRACTEURS-40/DIST.FIXES-20/10.NEUTRES /Dist.fix.neutre3.mp4","",NA,NA,"",NA,NA,NA,NA,"",NA,NA,867.8897,868.9731,-0.484602254,-0.282292345,1,0,0,1.0741,"Faux",0,61,61,61,1,NA,NA,"Fixed",TRUE,1
"227",NA,NA,"",NA,NA,"924827",1,"2025-04-16_00h31.25.802","Emotion.Memoire.2024","2024.1.5","MacIntel",30.03003003,NA,NA,NA,NA,NA,NA,NA,NA,NA,NA,NA,NA,NA,"","DISTRACTEURS-40/DIST.FIXES-20/10.NÉGATIFS/Dist.fix.negatif10.mp4","",NA,NA,"",NA,NA,NA,NA,"",NA,NA,868.9735,869.9047,-0.484602254,-0.282292345,1,0,0,0.8402,"Faux",0,62,62,62,1,NA,NA,"Fixed",TRUE,1
"228",NA,NA,"",NA,NA,"924827",1,"2025-04-16_00h31.25.802","Emotion.Memoire.2024","2024.1.5","MacIntel",30.03003003,NA,NA,NA,NA,NA,NA,NA,NA,NA,NA,NA,NA,NA,"","IMAGES_EXP_mp4_40/ANIMEES/10- ANIMEES --NEGATIVES /Video1.mp4","",NA,NA,"",NA,NA,NA,NA,"",NA,NA,869.9052,872.8538,0.47647583,-0.304144694,1,0,0,2.9309,"Vrai",0,63,63,63,1,NA,NA,"Animated",FALSE,1
"229",NA,NA,"",NA,NA,"924827",1,"2025-04-16_00h31.25.802","Emotion.Memoire.2024","2024.1.5","MacIntel",30.03003003,NA,NA,NA,NA,NA,NA,NA,NA,NA,NA,NA,NA,NA,"","DISTRACTEURS-40/DIST.FIXES-20/10.NÉGATIFS/Dist.fix.negatif9.mp4","",NA,NA,"",NA,NA,NA,NA,"",NA,NA,872.8542,877.8901,-0.493181186,-0.287318319,1,0,0,5.0345,"Faux",0,64,64,64,1,NA,NA,"Fixed",TRUE,1
"230",NA,NA,"",NA,NA,"924827",1,"2025-04-16_00h31.25.802","Emotion.Memoire.2024","2024.1.5","MacIntel",30.03003003,NA,NA,NA,NA,NA,NA,NA,NA,NA,NA,NA,NA,NA,"","DISTRACTEURS-40/DIST.FIXES-20/10.NÉGATIFS/Dist.fix.negatif2.mp4","",NA,NA,"",NA,NA,NA,NA,"",NA,NA,877.8907,879.7913,-0.492024638,-0.28878323,1,0,0,1.8983,"Faux",0,65,65,65,1,NA,NA,"Fixed",TRUE,1
"231",NA,NA,"",NA,NA,"924827",1,"2025-04-16_00h31.25.802","Emotion.Memoire.2024","2024.1.5","MacIntel",30.03003003,NA,NA,NA,NA,NA,NA,NA,NA,NA,NA,NA,NA,NA,"","IMAGES_EXP_mp4_40/FIXES/FIX-NEUTRE-mp4/image10.mp4","",NA,NA,"",NA,NA,NA,NA,"",NA,NA,879.7919,881.1866,0.475975342,-0.319001194,1,0,0,1.3893,"Vrai",0,66,66,66,1,NA,NA,"Fixed",FALSE,1
"232",NA,NA,"",NA,NA,"924827",1,"2025-04-16_00h31.25.802","Emotion.Memoire.2024","2024.1.5","MacIntel",30.03003003,NA,NA,NA,NA,NA,NA,NA,NA,NA,NA,NA,NA,NA,"","IMAGES_EXP_mp4_40/FIXES/FIX-NEGATIF-mp4/Image1.mp4","",NA,NA,"",NA,NA,NA,NA,"",NA,NA,881.1874,885.9043,0.480001492,-0.309956665,1,0,0,4.7146,"Vrai",0,67,67,67,1,NA,NA,"Fixed",FALSE,1
"233",NA,NA,"",NA,NA,"924827",1,"2025-04-16_00h31.25.802","Emotion.Memoire.2024","2024.1.5","MacIntel",30.03003003,NA,NA,NA,NA,NA,NA,NA,NA,NA,NA,NA,NA,NA,"","IMAGES_EXP_mp4_40/ANIMEES/10- ANIMEES --NEGATIVES /Video3.mp4","",NA,NA,"",NA,NA,NA,NA,"",NA,NA,885.9049,887.4407,0.469463976,-0.312427979,1,0,0,1.5316,"Vrai",0,68,68,68,1,NA,NA,"Animated",FALSE,1
"234",NA,NA,"",NA,NA,"924827",1,"2025-04-16_00h31.25.802","Emotion.Memoire.2024","2024.1.5","MacIntel",30.03003003,NA,NA,NA,NA,NA,NA,NA,NA,NA,NA,NA,NA,NA,"","DISTRACTEURS-40/DIST.FIXES-20/10.NEUTRES /Dist.fix.neutre1.mp4","",NA,NA,"",NA,NA,NA,NA,"",NA,NA,887.4411,889.3179,-0.442929823,-0.275392117,1,0,0,1.8728,"Faux",0,69,69,69,1,NA,NA,"Fixed",TRUE,1
"235",NA,NA,"",NA,NA,"924827",1,"2025-04-16_00h31.25.802","Emotion.Memoire.2024","2024.1.5","MacIntel",30.03003003,NA,NA,NA,NA,NA,NA,NA,NA,NA,NA,NA,NA,NA,"","DISTRACTEURS-40/DIST.FIXES-20/10.NÉGATIFS/Dist.fix.negatif3.mp4","",NA,NA,"",NA,NA,NA,NA,"",NA,NA,889.3182,920.7084,-0.4944025,-0.295872531,1,0,0,31.3881,"Faux",0,70,70,70,1,NA,NA,"Fixed",TRUE,1
"236",NA,NA,"",NA,NA,"924827",1,"2025-04-16_00h31.25.802","Emotion.Memoire.2024","2024.1.5","MacIntel",30.03003003,NA,NA,NA,NA,NA,NA,NA,NA,NA,NA,NA,NA,NA,"","IMAGES_EXP_mp4_40/FIXES/FIX-NEUTRE-mp4/image3.mp4","",NA,NA,"",NA,NA,NA,NA,"",NA,NA,920.7088,922.4418,0.516045464,-0.292638279,1,0,0,1.7317,"Vrai",0,71,71,71,1,NA,NA,"Fixed",FALSE,1
"237",NA,NA,"",NA,NA,"924827",1,"2025-04-16_00h31.25.802","Emotion.Memoire.2024","2024.1.5","MacIntel",30.03003003,NA,NA,NA,NA,NA,NA,NA,NA,NA,NA,NA,NA,NA,"","IMAGES_EXP_mp4_40/FIXES/FIX-NEGATIF-mp4/Image10.mp4","",NA,NA,"",NA,NA,NA,NA,"",NA,NA,922.4423,923.4758,0.516045464,-0.292638279,1,0,0,1.0256,"Vrai",0,72,72,72,1,NA,NA,"Fixed",FALSE,1
"238",NA,NA,"",NA,NA,"924827",1,"2025-04-16_00h31.25.802","Emotion.Memoire.2024","2024.1.5","MacIntel",30.03003003,NA,NA,NA,NA,NA,NA,NA,NA,NA,NA,NA,NA,NA,"","IMAGES_EXP_mp4_40/FIXES/FIX-NEUTRE-mp4/image1.mp4","",NA,NA,"",NA,NA,NA,NA,"",NA,NA,923.4761,924.3425,0.516045464,-0.292638279,1,0,0,0.8658,"Vrai",0,73,73,73,1,NA,NA,"Fixed",FALSE,1
"239",NA,NA,"",NA,NA,"924827",1,"2025-04-16_00h31.25.802","Emotion.Memoire.2024","2024.1.5","MacIntel",30.03003003,NA,NA,NA,NA,NA,NA,NA,NA,NA,NA,NA,NA,NA,"","DISTRACTEURS-40/DIST.FIXES-20/10.NÉGATIFS/Dist.fix.negatif4.mp4","",NA,NA,"",NA,NA,NA,NA,"",NA,NA,925.7927,927.0188,-0.49025411,-0.283071153,1,0,0,1.2254,"Faux",0,75,75,75,1,NA,NA,"Fixed",TRUE,1
"240",NA,NA,"",NA,NA,"924827",1,"2025-04-16_00h31.25.802","Emotion.Memoire.2024","2024.1.5","MacIntel",30.03003003,NA,NA,NA,NA,NA,NA,NA,NA,NA,NA,NA,NA,NA,"","IMAGES_EXP_mp4_40/ANIMEES/10- ANIMEES --NEGATIVES /Video9.mp4","",NA,NA,"",NA,NA,NA,NA,"",NA,NA,929.7755,931.4492,0.455745714,-0.309500393,1,0,0,1.6585,"Vrai",0,78,78,78,1,NA,NA,"Animated",FALSE,1
"241",NA,NA,"",NA,NA,"974490",1,"2025-03-25_11h48.28.273","Emotion.Memoire.2024","2024.1.5","Win32",2.608242045,NA,NA,NA,NA,NA,NA,NA,NA,NA,NA,NA,NA,NA,"IMAGES_EXP_mp4_40/FIXES/FIX-NEGATIF-mp4/Image3.mp4","IMAGES_EXP_mp4_40/ANIMEES/10- ANIMEES --NEGATIVES /Video2.mp4","DISTRACTEURS-40/DIST.FIXES-20/10.NÉGATIFS/Dist.fix.negatif5.mp4",NA,NA,"",NA,NA,NA,NA,"",NA,NA,6356.8309,6358.4614,0.475516866,-0.289989119,1,0,0,1.6286,"Vrai",0,2,2,2,1,NA,NA,"Animated",FALSE,1
"242",NA,NA,"",NA,NA,"974490",1,"2025-03-25_11h48.28.273","Emotion.Memoire.2024","2024.1.5","Win32",2.608242045,NA,NA,NA,NA,NA,NA,NA,NA,NA,NA,NA,NA,NA,"IMAGES_EXP_mp4_40/FIXES/FIX-NEGATIF-mp4/Image4.mp4","IMAGES_EXP_mp4_40/FIXES/FIX-NEUTRE-mp4/image6.mp4","",NA,NA,"",NA,NA,NA,NA,"",NA,NA,6358.4621,6359.4675,0.475516866,-0.289989119,1,0,0,1.0044,"Vrai",0,3,3,3,1,NA,NA,"Fixed",FALSE,1
"243",NA,NA,"",NA,NA,"974490",1,"2025-03-25_11h48.28.273","Emotion.Memoire.2024","2024.1.5","Win32",2.608242045,NA,NA,NA,NA,NA,NA,NA,NA,NA,NA,NA,NA,NA,"IMAGES_EXP_mp4_40/FIXES/FIX-NEGATIF-mp4/Image10.mp4","IMAGES_EXP_mp4_40/FIXES/FIX-NEUTRE-mp4/image2.mp4","",NA,NA,"",NA,NA,NA,NA,"",NA,NA,6359.4681,6360.262,0.475516866,-0.289989119,1,0,0,0.7929,"Vrai",0,4,4,4,1,NA,NA,"Fixed",FALSE,1
"244",NA,NA,"",NA,NA,"974490",1,"2025-03-25_11h48.28.273","Emotion.Memoire.2024","2024.1.5","Win32",2.608242045,NA,NA,NA,NA,NA,NA,NA,NA,NA,NA,NA,NA,NA,"IMAGES_EXP_mp4_40/ANIMEES/11-ANIMEES --- NEUTRES /video10.mp4","DISTRACTEURS-40/DIST.FIXES-20/10.NEUTRES /Dist.fix.neutre7.mp4","",NA,NA,"",NA,NA,NA,NA,"",NA,NA,6360.2631,6361.8768,-0.511425462,-0.322633297,1,0,0,1.6121,"Faux",0,5,5,5,1,NA,NA,"Fixed",TRUE,1
"245",NA,NA,"",NA,NA,"974490",1,"2025-03-25_11h48.28.273","Emotion.Memoire.2024","2024.1.5","Win32",2.608242045,NA,NA,NA,NA,NA,NA,NA,NA,NA,NA,NA,NA,NA,"IMAGES_EXP_mp4_40/FIXES/FIX-NEUTRE-mp4/image10.mp4","IMAGES_EXP_mp4_40/FIXES/FIX-NEGATIF-mp4/Image2.mp4","",NA,NA,"",NA,NA,NA,NA,"",NA,NA,6362.7126,6363.8455,0.540805223,-0.282372144,1,0,0,1.1302,"Vrai",0,7,7,7,1,NA,NA,"Fixed",FALSE,1
"246",NA,NA,"",NA,NA,"974490",1,"2025-03-25_11h48.28.273","Emotion.Memoire.2024","2024.1.5","Win32",2.608242045,NA,NA,NA,NA,NA,NA,NA,NA,NA,NA,NA,NA,NA,"IMAGES_EXP_mp4_40/ANIMEES/10- ANIMEES --NEGATIVES /Video1.mp4","IMAGES_EXP_mp4_40/FIXES/FIX-NEGATIF-mp4/Image9.mp4","",NA,NA,"",NA,NA,NA,NA,"",NA,NA,6363.8465,6365.1628,0.50054407,-0.300870511,1,0,0,1.3138,"Vrai",0,8,8,8,1,NA,NA,"Fixed",FALSE,1
"247",NA,NA,"",NA,NA,"974490",1,"2025-03-25_11h48.28.273","Emotion.Memoire.2024","2024.1.5","Win32",2.608242045,NA,NA,NA,NA,NA,NA,NA,NA,NA,NA,NA,NA,NA,"IMAGES_EXP_mp4_40/FIXES/FIX-NEUTRE-mp4/image4.mp4","DISTRACTEURS-40/DIST.FIXES-20/10.NEUTRES /Dist.fix.neutre8.mp4","",NA,NA,"",NA,NA,NA,NA,"",NA,NA,6365.164,6366.6387,-0.532100109,-0.281284004,1,0,0,1.472,"Faux",0,9,9,9,1,NA,NA,"Fixed",TRUE,1
"248",NA,NA,"",NA,NA,"974490",1,"2025-03-25_11h48.28.273","Emotion.Memoire.2024","2024.1.5","Win32",2.608242045,NA,NA,NA,NA,NA,NA,NA,NA,NA,NA,NA,NA,NA,"IMAGES_EXP_mp4_40/ANIMEES/11-ANIMEES --- NEUTRES /video9.mp4","IMAGES_EXP_mp4_40/ANIMEES/11-ANIMEES --- NEUTRES /video8.mp4","",NA,NA,"",NA,NA,NA,NA,"",NA,NA,6367.4787,6368.5281,0.487486398,-0.270402612,1,0,0,1.0481,"Vrai",0,11,11,11,1,NA,NA,"Animated",FALSE,1
"249",NA,NA,"",NA,NA,"974490",1,"2025-03-25_11h48.28.273","Emotion.Memoire.2024","2024.1.5","Win32",2.608242045,NA,NA,NA,NA,NA,NA,NA,NA,NA,NA,NA,NA,NA,"IMAGES_EXP_mp4_40/FIXES/FIX-NEUTRE-mp4/image8.mp4","IMAGES_EXP_mp4_40/ANIMEES/10- ANIMEES --NEGATIVES /Video8.mp4","",NA,NA,"",NA,NA,NA,NA,"",NA,NA,6368.5287,6369.478,0.503808487,-0.274755169,1,0,0,0.9477,"Vrai",0,12,12,12,1,NA,NA,"Animated",FALSE,1
"250",NA,NA,"",NA,NA,"974490",1,"2025-03-25_11h48.28.273","Emotion.Memoire.2024","2024.1.5","Win32",2.608242045,NA,NA,NA,NA,NA,NA,NA,NA,NA,NA,NA,NA,NA,"IMAGES_EXP_mp4_40/ANIMEES/11-ANIMEES --- NEUTRES /video5.mp4","DISTRACTEURS-40/DIST.FIXES-20/10.NÉGATIFS/Dist.fix.negatif8.mp4","",NA,NA,"",NA,NA,NA,NA,"",NA,NA,6369.4784,6370.8612,-0.489662677,-0.285636561,1,0,0,1.3816,"Faux",0,13,13,13,1,NA,NA,"Fixed",TRUE,1
"251",NA,NA,"",NA,NA,"974490",1,"2025-03-25_11h48.28.273","Emotion.Memoire.2024","2024.1.5","Win32",2.608242045,NA,NA,NA,NA,NA,NA,NA,NA,NA,NA,NA,NA,NA,"IMAGES_EXP_mp4_40/ANIMEES/11-ANIMEES --- NEUTRES /video1.mp4","DISTRACTEURS-40/DIST.FIXES-20/10.NEUTRES /Dist.fix.neutre2.mp4","",NA,NA,"",NA,NA,NA,NA,"",NA,NA,6370.8616,6372.3682,-0.495103373,-0.289989119,1,0,0,1.5056,"Faux",0,14,14,14,1,NA,NA,"Fixed",TRUE,1
"252",NA,NA,"",NA,NA,"974490",1,"2025-03-25_11h48.28.273","Emotion.Memoire.2024","2024.1.5","Win32",2.608242045,NA,NA,NA,NA,NA,NA,NA,NA,NA,NA,NA,NA,NA,"IMAGES_EXP_mp4_40/ANIMEES/10- ANIMEES --NEGATIVES /Video8.mp4","DISTRACTEURS-40/DIST.FIXES-20/10.NEUTRES /Dist.fix.neutre5.mp4","",NA,NA,"",NA,NA,NA,NA,"",NA,NA,6373.0303,6375.9199,-0.495103373,-0.289989119,1,0,0,2.8853,"Faux",0,16,16,16,1,NA,NA,"Fixed",TRUE,1
"253",NA,NA,"",NA,NA,"974490",1,"2025-03-25_11h48.28.273","Emotion.Memoire.2024","2024.1.5","Win32",2.608242045,NA,NA,NA,NA,NA,NA,NA,NA,NA,NA,NA,NA,NA,"IMAGES_EXP_mp4_40/ANIMEES/11-ANIMEES --- NEUTRES /video2.mp4","IMAGES_EXP_mp4_40/FIXES/FIX-NEUTRE-mp4/image5.mp4","",NA,NA,"",NA,NA,NA,NA,"",NA,NA,6376.6621,6378.2791,0.47007617,-0.293253536,1,0,0,1.6151,"Vrai",0,18,18,18,1,NA,NA,"Fixed",FALSE,1
"254",NA,NA,"",NA,NA,"974490",1,"2025-03-25_11h48.28.273","Emotion.Memoire.2024","2024.1.5","Win32",2.608242045,NA,NA,NA,NA,NA,NA,NA,NA,NA,NA,NA,NA,NA,"IMAGES_EXP_mp4_40/ANIMEES/10- ANIMEES --NEGATIVES /Video7.mp4","IMAGES_EXP_mp4_40/FIXES/FIX-NEUTRE-mp4/image7.mp4","",NA,NA,"",NA,NA,NA,NA,"",NA,NA,6378.2797,6379.512,0.496191513,-0.309575626,1,0,0,1.2299,"Vrai",0,19,19,19,1,NA,NA,"Fixed",FALSE,1
"255",NA,NA,"",NA,NA,"974490",1,"2025-03-25_11h48.28.273","Emotion.Memoire.2024","2024.1.5","Win32",2.608242045,NA,NA,NA,NA,NA,NA,NA,NA,NA,NA,NA,NA,NA,"IMAGES_EXP_mp4_40/FIXES/FIX-NEUTRE-mp4/image5.mp4","IMAGES_EXP_mp4_40/ANIMEES/10- ANIMEES --NEGATIVES /Video10.mp4","",NA,NA,"",NA,NA,NA,NA,"",NA,NA,6379.513,6380.2613,0.496191513,-0.309575626,1,0,0,0.7448,"Vrai",0,20,20,20,1,NA,NA,"Animated",FALSE,1
"256",NA,NA,"",NA,NA,"974490",1,"2025-03-25_11h48.28.273","Emotion.Memoire.2024","2024.1.5","Win32",2.608242045,NA,NA,NA,NA,NA,NA,NA,NA,NA,NA,NA,NA,NA,"IMAGES_EXP_mp4_40/ANIMEES/11-ANIMEES --- NEUTRES /video3.mp4","IMAGES_EXP_mp4_40/ANIMEES/10- ANIMEES --NEGATIVES /Video4.mp4","",NA,NA,"",NA,NA,NA,NA,"",NA,NA,6380.2618,6381.1949,0.496191513,-0.309575626,1,0,0,0.9316,"Vrai",0,21,21,21,1,NA,NA,"Animated",FALSE,1
"257",NA,NA,"",NA,NA,"974490",1,"2025-03-25_11h48.28.273","Emotion.Memoire.2024","2024.1.5","Win32",2.608242045,NA,NA,NA,NA,NA,NA,NA,NA,NA,NA,NA,NA,NA,"IMAGES_EXP_mp4_40/ANIMEES/10- ANIMEES --NEGATIVES /Video5.mp4","IMAGES_EXP_mp4_40/ANIMEES/10- ANIMEES --NEGATIVES /Video5.mp4","",NA,NA,"",NA,NA,NA,NA,"",NA,NA,6381.1956,6381.9614,0.496191513,-0.309575626,1,0,0,0.7643,"Vrai",0,22,22,22,1,NA,NA,"Animated",FALSE,1
"258",NA,NA,"",NA,NA,"974490",1,"2025-03-25_11h48.28.273","Emotion.Memoire.2024","2024.1.5","Win32",2.608242045,NA,NA,NA,NA,NA,NA,NA,NA,NA,NA,NA,NA,NA,"IMAGES_EXP_mp4_40/ANIMEES/11-ANIMEES --- NEUTRES /video7.mp4","IMAGES_EXP_mp4_40/ANIMEES/11-ANIMEES --- NEUTRES /video6.mp4","",NA,NA,"",NA,NA,NA,NA,"",NA,NA,6381.9618,6382.7783,0.496191513,-0.309575626,1,0,0,0.8149,"Vrai",0,23,23,23,1,NA,NA,"Animated",FALSE,1
"259",NA,NA,"",NA,NA,"974490",1,"2025-03-25_11h48.28.273","Emotion.Memoire.2024","2024.1.5","Win32",2.608242045,NA,NA,NA,NA,NA,NA,NA,NA,NA,NA,NA,NA,NA,"IMAGES_EXP_mp4_40/FIXES/FIX-NEGATIF-mp4/Image8.mp4","IMAGES_EXP_mp4_40/ANIMEES/11-ANIMEES --- NEUTRES /video5.mp4","",NA,NA,"",NA,NA,NA,NA,"",NA,NA,6382.7788,6383.6621,0.496191513,-0.309575626,1,0,0,0.8819,"Vrai",0,24,24,24,1,NA,NA,"Animated",FALSE,1
"260",NA,NA,"",NA,NA,"974490",1,"2025-03-25_11h48.28.273","Emotion.Memoire.2024","2024.1.5","Win32",2.608242045,NA,NA,NA,NA,NA,NA,NA,NA,NA,NA,NA,NA,NA,"IMAGES_EXP_mp4_40/ANIMEES/11-ANIMEES --- NEUTRES /video4.mp4","DISTRACTEURS-40/DIST.FIXES-20/10.NEUTRES /Dist.fix.neutre10.mp4","",NA,NA,"",NA,NA,NA,NA,"",NA,NA,6385.9617,6387.2348,-0.511425462,-0.300870511,1,0,0,1.2708,"Faux",0,27,27,27,1,NA,NA,"Fixed",TRUE,1
"261",NA,NA,"",NA,NA,"974490",1,"2025-03-25_11h48.28.273","Emotion.Memoire.2024","2024.1.5","Win32",2.608242045,NA,NA,NA,NA,NA,NA,NA,NA,NA,NA,NA,NA,NA,"IMAGES_EXP_mp4_40/FIXES/FIX-NEGATIF-mp4/Image1.mp4","IMAGES_EXP_mp4_40/FIXES/FIX-NEGATIF-mp4/Image3.mp4","",NA,NA,"",NA,NA,NA,NA,"",NA,NA,6387.2361,6388.5616,0.47007617,-0.278019587,1,0,0,1.3155,"Vrai",0,28,28,28,1,NA,NA,"Fixed",FALSE,1
"262",NA,NA,"",NA,NA,"974490",1,"2025-03-25_11h48.28.273","Emotion.Memoire.2024","2024.1.5","Win32",2.608242045,NA,NA,NA,NA,NA,NA,NA,NA,NA,NA,NA,NA,NA,"IMAGES_EXP_mp4_40/ANIMEES/10- ANIMEES --NEGATIVES /Video10.mp4","DISTRACTEURS-40/DIST.FIXES-20/10.NÉGATIFS/Dist.fix.negatif6.mp4","",NA,NA,"",NA,NA,NA,NA,"",NA,NA,6388.5626,6390.0612,-0.498367791,-0.298694233,1,0,0,1.4954,"Faux",0,29,29,29,1,NA,NA,"Fixed",TRUE,1
