Consigne.started,Consigne.stopped,Key_resp1.keys,Key_resp1.rt,Key_resp1.duration,participant,session,date,expName,psychopyVersion,OS,frameRate,IMAGES.started,IMAGES.stopped,SAM.started,SAM.stopped,Plaisir.response,Plaisir.rt,EVEIL.response,EVEIL.rt,trials.thisRepN,trials.thisTrialN,trials.thisN,trials.thisIndex,trials.ran,ImageFile,ImagesDistracteursFile,Test,Calcul.started,Calcul.stopped,Key_response.keys,Key_response.rt,Key_response.duration,Consigne_reco.started,Consigne_reco.stopped,key_resp_reconn.keys,key_resp_reconn.rt,key_resp_reconn.duration,DISTRACTEURS.started,DISTRACTEURS.stopped,mouse.x,mouse.y,mouse.leftButton,mouse.midButton,mouse.rightButton,mouse.time,mouse.clicked_name,trials_2.thisRepN,trials_2.thisTrialN,trials_2.thisN,trials_2.thisIndex,trials_2.ran,MERCI.started,MERCI.stopped
0.0006,70.0623,space,69.9166,,524648,001,2025-02-25_20h07.15.941,Emotion.Memoire.2024,2024.1.5,MacIntel,20,,,,,,,,,,,,,,,,,,,,,,,,,,,,,,,,,,,,,,,,,,
,,,,,524648,001,2025-02-25_20h07.15.941,Emotion.Memoire.2024,2024.1.5,MacIntel,20,70.0781,80.0585,80.0604,105.6384,5,18.6423,6,25.577,0,0,0,0,1,IMAGES_EXP_mp4_40/FIXES/FIX-NEGATIF-mp4/Image6.mp4,DISTRACTEURS-40/DIST.ANIMÉES-20/10.NÉGATIFS/Dist.animee.negatif10.mp4,IMAGES_EXP_mp4_40/ANIMEES/10- ANIMEES --NEGATIVES /Video1.mp4,,,,,,,,,,,,,,,,,,,,,,,,,,
,,,,,524648,001,2025-02-25_20h07.15.941,Emotion.Memoire.2024,2024.1.5,MacIntel,20,105.6389,115.6554,115.6556,125.2266,8,5.5326,2,9.5703,0,1,1,1,1,IMAGES_EXP_mp4_40/FIXES/FIX-NEUTRE-mp4/image9.mp4,DISTRACTEURS-40/DIST.ANIMÉES-20/10.NEUTRES/Dist.animee.neutre3.mp4,DISTRACTEURS-40/DIST.FIXES-20/10.NÉGATIFS/Dist.fix.negatif3.mp4,,,,,,,,,,,,,,,,,,,,,,,,,,
,,,,,524648,001,2025-02-25_20h07.15.941,Emotion.Memoire.2024,2024.1.5,MacIntel,20,125.2268,135.2324,135.2326,147.4358,1,6.3203,8,12.2025,0,2,2,2,1,IMAGES_EXP_mp4_40/FIXES/FIX-NEGATIF-mp4/Image3.mp4,IMAGES_EXP_mp4_40/ANIMEES/10- ANIMEES --NEGATIVES /Video2.mp4,DISTRACTEURS-40/DIST.FIXES-20/10.NÉGATIFS/Dist.fix.negatif5.mp4,,,,,,,,,,,,,,,,,,,,,,,,,,
,,,,,524648,001,2025-02-25_20h07.15.941,Emotion.Memoire.2024,2024.1.5,MacIntel,20,147.4369,157.4255,157.4256,164.2054,5,4.296,8,6.7789,0,3,3,3,1,IMAGES_EXP_mp4_40/FIXES/FIX-NEGATIF-mp4/Image4.mp4,IMAGES_EXP_mp4_40/FIXES/FIX-NEUTRE-mp4/image6.mp4,,,,,,,,,,,,,,,,,,,,,,,,,,,
,,,,,524648,001,2025-02-25_20h07.15.941,Emotion.Memoire.2024,2024.1.5,MacIntel,20,164.2056,174.2154,174.2155,179.1391,3,1.6049,7,4.9227,0,4,4,4,1,IMAGES_EXP_mp4_40/FIXES/FIX-NEGATIF-mp4/Image10.mp4,IMAGES_EXP_mp4_40/FIXES/FIX-NEUTRE-mp4/image2.mp4,,,,,,,,,,,,,,,,,,,,,,,,,,,
,,,,,524648,001,2025-02-25_20h07.15.941,Emotion.Memoire.2024,2024.1.5,MacIntel,20,179.1394,189.1475,189.1477,200.019,7,5.7062,2,10.8707,0,5,5,5,1,IMAGES_EXP_mp4_40/ANIMEES/11-ANIMEES --- NEUTRES /video10.mp4,DISTRACTEURS-40/DIST.FIXES-20/10.NEUTRES /Dist.fix.neutre7.mp4,,,,,,,,,,,,,,,,,,,,,,,,,,,
,,,,,524648,001,2025-02-25_20h07.15.941,Emotion.Memoire.2024,2024.1.5,MacIntel,20,200.0192,210.0289,210.0291,215.3738,1,2.5541,9,5.3439,0,6,6,6,1,IMAGES_EXP_mp4_40/ANIMEES/10- ANIMEES --NEGATIVES /Video4.mp4,DISTRACTEURS-40/DIST.ANIMÉES-20/10.NÉGATIFS/Dist.animee.negatif4.mp4,,,,,,,,,,,,,,,,,,,,,,,,,,,
,,,,,524648,001,2025-02-25_20h07.15.941,Emotion.Memoire.2024,2024.1.5,MacIntel,20,215.374,225.3722,225.3724,232.4783,8,3.5152,2,7.1052,0,7,7,7,1,IMAGES_EXP_mp4_40/FIXES/FIX-NEUTRE-mp4/image10.mp4,IMAGES_EXP_mp4_40/FIXES/FIX-NEGATIF-mp4/Image2.mp4,,,,,,,,,,,,,,,,,,,,,,,,,,,
,,,,,524648,001,2025-02-25_20h07.15.941,Emotion.Memoire.2024,2024.1.5,MacIntel,20,232.4785,242.4927,242.493,248.9038,2,4.487,8,6.4102,0,8,8,8,1,IMAGES_EXP_mp4_40/ANIMEES/10- ANIMEES --NEGATIVES /Video1.mp4,IMAGES_EXP_mp4_40/FIXES/FIX-NEGATIF-mp4/Image9.mp4,,,,,,,,,,,,,,,,,,,,,,,,,,,
,,,,,524648,001,2025-02-25_20h07.15.941,Emotion.Memoire.2024,2024.1.5,MacIntel,20,248.904,258.903,258.9032,265.2932,5,4.4155,8,6.3893,0,9,9,9,1,IMAGES_EXP_mp4_40/FIXES/FIX-NEUTRE-mp4/image4.mp4,DISTRACTEURS-40/DIST.FIXES-20/10.NEUTRES /Dist.fix.neutre8.mp4,,,,,,,,,,,,,,,,,,,,,,,,,,,
,,,,,524648,001,2025-02-25_20h07.15.941,Emotion.Memoire.2024,2024.1.5,MacIntel,20,265.2935,275.2841,275.2842,280.5503,8,2.3501,3,5.2653,0,10,10,10,1,IMAGES_EXP_mp4_40/ANIMEES/11-ANIMEES --- NEUTRES /video6.mp4,DISTRACTEURS-40/DIST.ANIMÉES-20/10.NÉGATIFS/Dist.animee.negatif8.mp4,,,,,,,,,,,,,,,,,,,,,,,,,,,
,,,,,524648,001,2025-02-25_20h07.15.941,Emotion.Memoire.2024,2024.1.5,MacIntel,20,280.5504,290.5489,290.5491,296.0824,7,2.2408,2,5.5325,0,11,11,11,1,IMAGES_EXP_mp4_40/ANIMEES/11-ANIMEES --- NEUTRES /video9.mp4,IMAGES_EXP_mp4_40/ANIMEES/11-ANIMEES --- NEUTRES /video8.mp4,,,,,,,,,,,,,,,,,,,,,,,,,,,
,,,,,524648,001,2025-02-25_20h07.15.941,Emotion.Memoire.2024,2024.1.5,MacIntel,20,296.0826,306.0894,306.0896,310.383,8,2.2329,4,4.2928,0,12,12,12,1,IMAGES_EXP_mp4_40/FIXES/FIX-NEUTRE-mp4/image8.mp4,IMAGES_EXP_mp4_40/ANIMEES/10- ANIMEES --NEGATIVES /Video8.mp4,,,,,,,,,,,,,,,,,,,,,,,,,,,
,,,,,524648,001,2025-02-25_20h07.15.941,Emotion.Memoire.2024,2024.1.5,MacIntel,20,310.3831,320.3846,320.385,327.3218,7,4.7698,8,6.9358,0,13,13,13,1,IMAGES_EXP_mp4_40/ANIMEES/11-ANIMEES --- NEUTRES /video5.mp4,DISTRACTEURS-40/DIST.FIXES-20/10.NÉGATIFS/Dist.fix.negatif8.mp4,,,,,,,,,,,,,,,,,,,,,,,,,,,
,,,,,524648,001,2025-02-25_20h07.15.941,Emotion.Memoire.2024,2024.1.5,MacIntel,20,327.322,337.3168,337.3169,347.3538,8,5.101,3,10.0344,0,14,14,14,1,IMAGES_EXP_mp4_40/ANIMEES/11-ANIMEES --- NEUTRES /video1.mp4,DISTRACTEURS-40/DIST.FIXES-20/10.NEUTRES /Dist.fix.neutre2.mp4,,,,,,,,,,,,,,,,,,,,,,,,,,,
,,,,,524648,001,2025-02-25_20h07.15.941,Emotion.Memoire.2024,2024.1.5,MacIntel,20,347.354,356.7869,356.7869,366.2843,3,3.8683,8,9.4967,0,15,15,15,1,IMAGES_EXP_mp4_40/ANIMEES/10- ANIMEES --NEGATIVES /Video9.mp4,DISTRACTEURS-40/DIST.ANIMÉES-20/10.NEUTRES/Dist.animee.neutre10.mp4,,,,,,,,,,,,,,,,,,,,,,,,,,,
,,,,,524648,001,2025-02-25_20h07.15.941,Emotion.Memoire.2024,2024.1.5,MacIntel,20,366.2846,375.2202,375.2203,381.3526,1,3.4635,9,6.1317,0,16,16,16,1,IMAGES_EXP_mp4_40/ANIMEES/10- ANIMEES --NEGATIVES /Video8.mp4,DISTRACTEURS-40/DIST.FIXES-20/10.NEUTRES /Dist.fix.neutre5.mp4,,,,,,,,,,,,,,,,,,,,,,,,,,,
,,,,,524648,001,2025-02-25_20h07.15.941,Emotion.Memoire.2024,2024.1.5,MacIntel,20,381.3528,391.3545,391.3546,394.755,1,2.0064,7,3.3998,0,17,17,17,1,IMAGES_EXP_mp4_40/FIXES/FIX-NEGATIF-mp4/Image5.mp4,DISTRACTEURS-40/DIST.ANIMÉES-20/10.NEUTRES/Dist.animee.neutre1.mp4,,,,,,,,,,,,,,,,,,,,,,,,,,,
,,,,,524648,001,2025-02-25_20h07.15.941,Emotion.Memoire.2024,2024.1.5,MacIntel,20,394.7553,404.7648,404.7648,412.1236,7,2.9176,2,7.3581,0,18,18,18,1,IMAGES_EXP_mp4_40/ANIMEES/11-ANIMEES --- NEUTRES /video2.mp4,IMAGES_EXP_mp4_40/FIXES/FIX-NEUTRE-mp4/image5.mp4,,,,,,,,,,,,,,,,,,,,,,,,,,,
,,,,,524648,001,2025-02-25_20h07.15.941,Emotion.Memoire.2024,2024.1.5,MacIntel,20,412.1238,422.1161,422.1162,427.045,1,3.0684,6,4.9281,0,19,19,19,1,IMAGES_EXP_mp4_40/ANIMEES/10- ANIMEES --NEGATIVES /Video7.mp4,IMAGES_EXP_mp4_40/FIXES/FIX-NEUTRE-mp4/image7.mp4,,,,,,,,,,,,,,,,,,,,,,,,,,,
,,,,,524648,001,2025-02-25_20h07.15.941,Emotion.Memoire.2024,2024.1.5,MacIntel,20,427.0454,437.0326,437.0328,442.519,9,2.9809,1,5.4826,0,20,20,20,1,IMAGES_EXP_mp4_40/FIXES/FIX-NEUTRE-mp4/image5.mp4,IMAGES_EXP_mp4_40/ANIMEES/10- ANIMEES --NEGATIVES /Video10.mp4,,,,,,,,,,,,,,,,,,,,,,,,,,,
,,,,,524648,001,2025-02-25_20h07.15.941,Emotion.Memoire.2024,2024.1.5,MacIntel,20,442.5192,452.5166,452.5168,460.7675,8,4.2385,2,8.2501,0,21,21,21,1,IMAGES_EXP_mp4_40/ANIMEES/11-ANIMEES --- NEUTRES /video3.mp4,IMAGES_EXP_mp4_40/ANIMEES/10- ANIMEES --NEGATIVES /Video4.mp4,,,,,,,,,,,,,,,,,,,,,,,,,,,
,,,,,524648,001,2025-02-25_20h07.15.941,Emotion.Memoire.2024,2024.1.5,MacIntel,20,460.7677,470.756,470.7563,478.5575,3,4.5433,8,7.8006,0,22,22,22,1,IMAGES_EXP_mp4_40/ANIMEES/10- ANIMEES --NEGATIVES /Video5.mp4,IMAGES_EXP_mp4_40/ANIMEES/10- ANIMEES --NEGATIVES /Video5.mp4,,,,,,,,,,,,,,,,,,,,,,,,,,,
,,,,,524648,001,2025-02-25_20h07.15.941,Emotion.Memoire.2024,2024.1.5,MacIntel,20,478.5577,488.5673,488.5675,493.1972,7,3.4827,7,4.6286,0,23,23,23,1,IMAGES_EXP_mp4_40/ANIMEES/11-ANIMEES --- NEUTRES /video7.mp4,IMAGES_EXP_mp4_40/ANIMEES/11-ANIMEES --- NEUTRES /video6.mp4,,,,,,,,,,,,,,,,,,,,,,,,,,,
,,,,,524648,001,2025-02-25_20h07.15.941,Emotion.Memoire.2024,2024.1.5,MacIntel,20,493.1974,503.1851,503.1853,510.87,2,5.2622,4,7.6841,0,24,24,24,1,IMAGES_EXP_mp4_40/FIXES/FIX-NEGATIF-mp4/Image8.mp4,IMAGES_EXP_mp4_40/ANIMEES/11-ANIMEES --- NEUTRES /video5.mp4,,,,,,,,,,,,,,,,,,,,,,,,,,,
,,,,,524648,001,2025-02-25_20h07.15.941,Emotion.Memoire.2024,2024.1.5,MacIntel,20,510.8702,520.8664,520.8665,525.5523,1,2.6558,9,4.6851,0,25,25,25,1,IMAGES_EXP_mp4_40/FIXES/FIX-NEGATIF-mp4/Image2.mp4,DISTRACTEURS-40/DIST.ANIMÉES-20/10.NÉGATIFS/Dist.animee.negatif5.mp4,,,,,,,,,,,,,,,,,,,,,,,,,,,
,,,,,524648,001,2025-02-25_20h07.15.941,Emotion.Memoire.2024,2024.1.5,MacIntel,20,525.5525,535.5403,535.5405,541.0631,6,3.0761,1,5.5221,0,26,26,26,1,IMAGES_EXP_mp4_40/FIXES/FIX-NEUTRE-mp4/image7.mp4,DISTRACTEURS-40/DIST.ANIMÉES-20/10.NEUTRES/Dist.animee.neutre4.mp4,,,,,,,,,,,,,,,,,,,,,,,,,,,
,,,,,524648,001,2025-02-25_20h07.15.941,Emotion.Memoire.2024,2024.1.5,MacIntel,20,541.0633,551.0508,551.051,558.5751,9,2.8572,4,7.5233,0,27,27,27,1,IMAGES_EXP_mp4_40/ANIMEES/11-ANIMEES --- NEUTRES /video4.mp4,DISTRACTEURS-40/DIST.FIXES-20/10.NEUTRES /Dist.fix.neutre10.mp4,,,,,,,,,,,,,,,,,,,,,,,,,,,
,,,,,524648,001,2025-02-25_20h07.15.941,Emotion.Memoire.2024,2024.1.5,MacIntel,20,558.5755,568.5713,568.5716,573.6361,1,2.8899,6,5.0635,0,28,28,28,1,IMAGES_EXP_mp4_40/FIXES/FIX-NEGATIF-mp4/Image1.mp4,IMAGES_EXP_mp4_40/FIXES/FIX-NEGATIF-mp4/Image3.mp4,,,,,,,,,,,,,,,,,,,,,,,,,,,
,,,,,524648,001,2025-02-25_20h07.15.941,Emotion.Memoire.2024,2024.1.5,MacIntel,20,573.6365,583.6522,583.6523,589.0037,1,2.4974,5,5.3504,0,29,29,29,1,IMAGES_EXP_mp4_40/ANIMEES/10- ANIMEES --NEGATIVES /Video10.mp4,DISTRACTEURS-40/DIST.FIXES-20/10.NÉGATIFS/Dist.fix.negatif6.mp4,,,,,,,,,,,,,,,,,,,,,,,,,,,
,,,,,524648,001,2025-02-25_20h07.15.941,Emotion.Memoire.2024,2024.1.5,MacIntel,20,589.0039,599.0191,599.0192,603.7177,7,3.0359,6,4.6969,0,30,30,30,1,IMAGES_EXP_mp4_40/ANIMEES/11-ANIMEES --- NEUTRES /video8.mp4,IMAGES_EXP_mp4_40/ANIMEES/11-ANIMEES --- NEUTRES /video1.mp4,,,,,,,,,,,,,,,,,,,,,,,,,,,
,,,,,524648,001,2025-02-25_20h07.15.941,Emotion.Memoire.2024,2024.1.5,MacIntel,20,603.7182,613.722,613.7222,617.3229,8,1.6769,5,3.5987,0,31,31,31,1,IMAGES_EXP_mp4_40/FIXES/FIX-NEUTRE-mp4/image6.mp4,IMAGES_EXP_mp4_40/FIXES/FIX-NEUTRE-mp4/image9.mp4,,,,,,,,,,,,,,,,,,,,,,,,,,,
,,,,,524648,001,2025-02-25_20h07.15.941,Emotion.Memoire.2024,2024.1.5,MacIntel,20,617.3231,627.3219,627.3222,632.5351,1,3.5179,9,5.2119,0,32,32,32,1,IMAGES_EXP_mp4_40/ANIMEES/10- ANIMEES --NEGATIVES /Video2.mp4,IMAGES_EXP_mp4_40/ANIMEES/10- ANIMEES --NEGATIVES /Video6.mp4,,,,,,,,,,,,,,,,,,,,,,,,,,,
,,,,,524648,001,2025-02-25_20h07.15.941,Emotion.Memoire.2024,2024.1.5,MacIntel,20,632.5355,642.5127,642.5129,646.5379,1,2.7064,5,4.0244,0,33,33,33,1,IMAGES_EXP_mp4_40/ANIMEES/10- ANIMEES --NEGATIVES /Video3.mp4,IMAGES_EXP_mp4_40/ANIMEES/11-ANIMEES --- NEUTRES /video3.mp4,,,,,,,,,,,,,,,,,,,,,,,,,,,
,,,,,524648,001,2025-02-25_20h07.15.941,Emotion.Memoire.2024,2024.1.5,MacIntel,20,646.5382,656.5281,656.5283,663.5474,7,2.321,4,7.0181,0,34,34,34,1,IMAGES_EXP_mp4_40/FIXES/FIX-NEUTRE-mp4/image2.mp4,DISTRACTEURS-40/DIST.ANIMÉES-20/10.NÉGATIFS/Dist.animee.negatif7.mp4,,,,,,,,,,,,,,,,,,,,,,,,,,,
,,,,,524648,001,2025-02-25_20h07.15.941,Emotion.Memoire.2024,2024.1.5,MacIntel,20,663.5475,673.5463,673.5465,679.6018,8,3.6754,1,6.0547,0,35,35,35,1,IMAGES_EXP_mp4_40/FIXES/FIX-NEUTRE-mp4/image3.mp4,IMAGES_EXP_mp4_40/ANIMEES/11-ANIMEES --- NEUTRES /video9.mp4,,,,,,,,,,,,,,,,,,,,,,,,,,,
,,,,,524648,001,2025-02-25_20h07.15.941,Emotion.Memoire.2024,2024.1.5,MacIntel,20,679.602,689.5807,689.5811,699.3825,3,3.7515,3,9.8004,0,36,36,36,1,IMAGES_EXP_mp4_40/FIXES/FIX-NEGATIF-mp4/Image9.mp4,DISTRACTEURS-40/DIST.ANIMÉES-20/10.NEUTRES/Dist.animee.neutre6.mp4,,,,,,,,,,,,,,,,,,,,,,,,,,,
,,,,,524648,001,2025-02-25_20h07.15.941,Emotion.Memoire.2024,2024.1.5,MacIntel,20,699.3829,709.3967,709.3969,717.1148,3,4.7743,3,7.7171,0,37,37,37,1,IMAGES_EXP_mp4_40/FIXES/FIX-NEGATIF-mp4/Image7.mp4,IMAGES_EXP_mp4_40/FIXES/FIX-NEGATIF-mp4/Image8.mp4,,,,,,,,,,,,,,,,,,,,,,,,,,,
,,,,,524648,001,2025-02-25_20h07.15.941,Emotion.Memoire.2024,2024.1.5,MacIntel,20,717.1151,727.0909,727.0911,734.7991,1,5.4558,9,7.7071,0,38,38,38,1,IMAGES_EXP_mp4_40/ANIMEES/10- ANIMEES --NEGATIVES /Video6.mp4,IMAGES_EXP_mp4_40/FIXES/FIX-NEUTRE-mp4/image8.mp4,,,,,,,,,,,,,,,,,,,,,,,,,,,
,,,,,524648,001,2025-02-25_20h07.15.941,Emotion.Memoire.2024,2024.1.5,MacIntel,20,734.7993,744.8111,744.8112,750.7798,7,3.3799,2,5.9678,0,39,39,39,1,IMAGES_EXP_mp4_40/FIXES/FIX-NEUTRE-mp4/image1.mp4,IMAGES_EXP_mp4_40/ANIMEES/11-ANIMEES --- NEUTRES /video7.mp4,,,,,,,,,,,,,,,,,,,,,,,,,,,
,,,,,524648,001,2025-02-25_20h07.15.941,Emotion.Memoire.2024,2024.1.5,MacIntel,20,,,,,,,,,,,,,,,,,750.7953,840.6701,space,89.7369,0.0114,,,,,,,,,,,,,,,,,,,,,
,,,,,524648,001,2025-02-25_20h07.15.941,Emotion.Memoire.2024,2024.1.5,MacIntel,20,,,,,,,,,,,,,,,,,,,,,,840.6702,901.6132,space,60.7432,,,,,,,,,,,,,,,,,
,,,,,524648,001,2025-02-25_20h07.15.941,Emotion.Memoire.2024,2024.1.5,MacIntel,20,,,,,,,,,,,,,,IMAGES_EXP_mp4_40/FIXES/FIX-NEGATIF-mp4/Image6.mp4,DISTRACTEURS-40/DIST.ANIMÉES-20/10.NÉGATIFS/Dist.animee.negatif10.mp4,IMAGES_EXP_mp4_40/ANIMEES/10- ANIMEES --NEGATIVES /Video1.mp4,,,,,,,,,,,901.6497,918.0382,-0.499516873,-0.290557387,1,0,0,16.3853,Faux,0,0,0,0,1,,
,,,,,524648,001,2025-02-25_20h07.15.941,Emotion.Memoire.2024,2024.1.5,MacIntel,20,,,,,,,,,,,,,,IMAGES_EXP_mp4_40/FIXES/FIX-NEUTRE-mp4/image9.mp4,DISTRACTEURS-40/DIST.ANIMÉES-20/10.NEUTRES/Dist.animee.neutre3.mp4,DISTRACTEURS-40/DIST.FIXES-20/10.NÉGATIFS/Dist.fix.negatif3.mp4,,,,,,,,,,,918.0388,920.554,-0.5042256,-0.294939711,1,0,0,2.5135,Faux,0,1,1,1,1,,
,,,,,524648,001,2025-02-25_20h07.15.941,Emotion.Memoire.2024,2024.1.5,MacIntel,20,,,,,,,,,,,,,,IMAGES_EXP_mp4_40/FIXES/FIX-NEGATIF-mp4/Image3.mp4,IMAGES_EXP_mp4_40/ANIMEES/10- ANIMEES --NEGATIVES /Video2.mp4,DISTRACTEURS-40/DIST.FIXES-20/10.NÉGATIFS/Dist.fix.negatif5.mp4,,,,,,,,,,,920.5545,929.9277,0.503187663,-0.310668606,1,0,0,9.3705,Vrai,0,2,2,2,1,,
,,,,,524648,001,2025-02-25_20h07.15.941,Emotion.Memoire.2024,2024.1.5,MacIntel,20,,,,,,,,,,,,,,IMAGES_EXP_mp4_40/FIXES/FIX-NEGATIF-mp4/Image4.mp4,IMAGES_EXP_mp4_40/FIXES/FIX-NEUTRE-mp4/image6.mp4,,,,,,,,,,,,929.9281,931.0278,0.480218506,-0.309536065,1,0,0,1.0986,Vrai,0,3,3,3,1,,
,,,,,524648,001,2025-02-25_20h07.15.941,Emotion.Memoire.2024,2024.1.5,MacIntel,20,,,,,,,,,,,,,,IMAGES_EXP_mp4_40/FIXES/FIX-NEGATIF-mp4/Image10.mp4,IMAGES_EXP_mp4_40/FIXES/FIX-NEUTRE-mp4/image2.mp4,,,,,,,,,,,,931.0283,931.8582,0.480218506,-0.309536065,1,0,0,0.829,Vrai,0,4,4,4,1,,
,,,,,524648,001,2025-02-25_20h07.15.941,Emotion.Memoire.2024,2024.1.5,MacIntel,20,,,,,,,,,,,,,,IMAGES_EXP_mp4_40/ANIMEES/11-ANIMEES --- NEUTRES /video10.mp4,DISTRACTEURS-40/DIST.FIXES-20/10.NEUTRES /Dist.fix.neutre7.mp4,,,,,,,,,,,,931.8586,934.2871,-0.52934967,-0.29083842,1,0,0,2.4253,Faux,0,5,5,5,1,,
,,,,,524648,001,2025-02-25_20h07.15.941,Emotion.Memoire.2024,2024.1.5,MacIntel,20,,,,,,,,,,,,,,IMAGES_EXP_mp4_40/ANIMEES/10- ANIMEES --NEGATIVES /Video4.mp4,DISTRACTEURS-40/DIST.ANIMÉES-20/10.NÉGATIFS/Dist.animee.negatif4.mp4,,,,,,,,,,,,934.2884,935.8981,-0.506343452,-0.287841661,1,0,0,1.6076,Faux,0,6,6,6,1,,
,,,,,524648,001,2025-02-25_20h07.15.941,Emotion.Memoire.2024,2024.1.5,MacIntel,20,,,,,,,,,,,,,,IMAGES_EXP_mp4_40/FIXES/FIX-NEUTRE-mp4/image10.mp4,IMAGES_EXP_mp4_40/FIXES/FIX-NEGATIF-mp4/Image2.mp4,,,,,,,,,,,,935.8987,937.3422,0.454563666,-0.286090224,1,0,0,1.4424,Vrai,0,7,7,7,1,,
,,,,,524648,001,2025-02-25_20h07.15.941,Emotion.Memoire.2024,2024.1.5,MacIntel,20,,,,,,,,,,,,,,IMAGES_EXP_mp4_40/ANIMEES/10- ANIMEES --NEGATIVES /Video1.mp4,IMAGES_EXP_mp4_40/FIXES/FIX-NEGATIF-mp4/Image9.mp4,,,,,,,,,,,,937.3428,938.4377,0.455997586,-0.287493625,1,0,0,1.0929,Vrai,0,8,8,8,1,,
,,,,,524648,001,2025-02-25_20h07.15.941,Emotion.Memoire.2024,2024.1.5,MacIntel,20,,,,,,,,,,,,,,IMAGES_EXP_mp4_40/FIXES/FIX-NEUTRE-mp4/image4.mp4,DISTRACTEURS-40/DIST.FIXES-20/10.NEUTRES /Dist.fix.neutre8.mp4,,,,,,,,,,,,938.44,940.7242,-0.513196072,-0.285499742,1,0,0,2.2779,Faux,0,9,9,9,1,,
,,,,,524648,001,2025-02-25_20h07.15.941,Emotion.Memoire.2024,2024.1.5,MacIntel,20,,,,,,,,,,,,,,IMAGES_EXP_mp4_40/ANIMEES/11-ANIMEES --- NEUTRES /video6.mp4,DISTRACTEURS-40/DIST.ANIMÉES-20/10.NÉGATIFS/Dist.animee.negatif8.mp4,,,,,,,,,,,,940.7287,942.4129,-0.510723538,-0.28239997,1,0,0,1.6694,Faux,0,10,10,10,1,,
,,,,,524648,001,2025-02-25_20h07.15.941,Emotion.Memoire.2024,2024.1.5,MacIntel,20,,,,,,,,,,,,,,IMAGES_EXP_mp4_40/ANIMEES/11-ANIMEES --- NEUTRES /video9.mp4,IMAGES_EXP_mp4_40/ANIMEES/11-ANIMEES --- NEUTRES /video8.mp4,,,,,,,,,,,,942.4136,943.7753,0.465073513,-0.276606242,1,0,0,1.3603,Vrai,0,11,11,11,1,,
,,,,,524648,001,2025-02-25_20h07.15.941,Emotion.Memoire.2024,2024.1.5,MacIntel,20,,,,,,,,,,,,,,IMAGES_EXP_mp4_40/FIXES/FIX-NEUTRE-mp4/image8.mp4,IMAGES_EXP_mp4_40/ANIMEES/10- ANIMEES --NEGATIVES /Video8.mp4,,,,,,,,,,,,943.7757,945.392,0.537439236,-0.322197062,1,0,0,1.6085,Vrai,0,12,12,12,1,,
,,,,,524648,001,2025-02-25_20h07.15.941,Emotion.Memoire.2024,2024.1.5,MacIntel,20,,,,,,,,,,,,,,IMAGES_EXP_mp4_40/ANIMEES/11-ANIMEES --- NEUTRES /video5.mp4,DISTRACTEURS-40/DIST.FIXES-20/10.NÉGATIFS/Dist.fix.negatif8.mp4,,,,,,,,,,,,945.3924,946.58,-0.498246867,-0.334057482,1,0,0,1.1809,Faux,0,13,13,13,1,,
,,,,,524648,001,2025-02-25_20h07.15.941,Emotion.Memoire.2024,2024.1.5,MacIntel,20,,,,,,,,,,,,,,IMAGES_EXP_mp4_40/ANIMEES/11-ANIMEES --- NEUTRES /video1.mp4,DISTRACTEURS-40/DIST.FIXES-20/10.NEUTRES /Dist.fix.neutre2.mp4,,,,,,,,,,,,946.5804,948.2271,-0.505852017,-0.273425157,1,0,0,1.6436,Faux,0,14,14,14,1,,
,,,,,524648,001,2025-02-25_20h07.15.941,Emotion.Memoire.2024,2024.1.5,MacIntel,20,,,,,,,,,,,,,,IMAGES_EXP_mp4_40/ANIMEES/10- ANIMEES --NEGATIVES /Video9.mp4,DISTRACTEURS-40/DIST.ANIMÉES-20/10.NEUTRES/Dist.animee.neutre10.mp4,,,,,,,,,,,,948.2291,949.1493,-0.476405741,-0.282589383,1,0,0,0.917,Faux,0,15,15,15,1,,
,,,,,524648,001,2025-02-25_20h07.15.941,Emotion.Memoire.2024,2024.1.5,MacIntel,20,,,,,,,,,,,,,,IMAGES_EXP_mp4_40/ANIMEES/10- ANIMEES --NEGATIVES /Video8.mp4,DISTRACTEURS-40/DIST.FIXES-20/10.NEUTRES /Dist.fix.neutre5.mp4,,,,,,,,,,,,949.1504,949.9873,-0.476405741,-0.282589383,1,0,0,0.8332,Faux,0,16,16,16,1,,
,,,,,524648,001,2025-02-25_20h07.15.941,Emotion.Memoire.2024,2024.1.5,MacIntel,20,,,,,,,,,,,,,,IMAGES_EXP_mp4_40/FIXES/FIX-NEGATIF-mp4/Image5.mp4,DISTRACTEURS-40/DIST.ANIMÉES-20/10.NEUTRES/Dist.animee.neutre1.mp4,,,,,,,,,,,,949.9878,950.8869,-0.476405741,-0.282589383,1,0,0,0.8973,Faux,0,17,17,17,1,,
,,,,,524648,001,2025-02-25_20h07.15.941,Emotion.Memoire.2024,2024.1.5,MacIntel,20,,,,,,,,,,,,,,IMAGES_EXP_mp4_40/ANIMEES/11-ANIMEES --- NEUTRES /video2.mp4,IMAGES_EXP_mp4_40/FIXES/FIX-NEUTRE-mp4/image5.mp4,,,,,,,,,,,,950.8875,952.3479,0.49964464,-0.303266805,1,0,0,1.4493,Vrai,0,18,18,18,1,,
,,,,,524648,001,2025-02-25_20h07.15.941,Emotion.Memoire.2024,2024.1.5,MacIntel,20,,,,,,,,,,,,,,IMAGES_EXP_mp4_40/ANIMEES/10- ANIMEES --NEGATIVES /Video7.mp4,IMAGES_EXP_mp4_40/FIXES/FIX-NEUTRE-mp4/image7.mp4,,,,,,,,,,,,952.3482,953.7739,0.524540202,-0.321217923,1,0,0,1.4231,Vrai,0,19,19,19,1,,
,,,,,524648,001,2025-02-25_20h07.15.941,Emotion.Memoire.2024,2024.1.5,MacIntel,20,,,,,,,,,,,,,,IMAGES_EXP_mp4_40/FIXES/FIX-NEUTRE-mp4/image5.mp4,IMAGES_EXP_mp4_40/ANIMEES/10- ANIMEES --NEGATIVES /Video10.mp4,,,,,,,,,,,,953.7744,955.146,0.522730849,-0.315013292,1,0,0,1.3686,Vrai,0,20,20,20,1,,
,,,,,524648,001,2025-02-25_20h07.15.941,Emotion.Memoire.2024,2024.1.5,MacIntel,20,,,,,,,,,,,,,,IMAGES_EXP_mp4_40/ANIMEES/11-ANIMEES --- NEUTRES /video3.mp4,IMAGES_EXP_mp4_40/ANIMEES/10- ANIMEES --NEGATIVES /Video4.mp4,,,,,,,,,,,,955.1463,956.66,0.444640842,-0.298782281,1,0,0,1.5109,Vrai,0,21,21,21,1,,
,,,,,524648,001,2025-02-25_20h07.15.941,Emotion.Memoire.2024,2024.1.5,MacIntel,20,,,,,,,,,,,,,,IMAGES_EXP_mp4_40/ANIMEES/10- ANIMEES --NEGATIVES /Video5.mp4,IMAGES_EXP_mp4_40/ANIMEES/10- ANIMEES --NEGATIVES /Video5.mp4,,,,,,,,,,,,956.6604,957.7109,0.538439806,-0.31041097,1,0,0,1.0477,Vrai,0,22,22,22,1,,
,,,,,524648,001,2025-02-25_20h07.15.941,Emotion.Memoire.2024,2024.1.5,MacIntel,20,,,,,,,,,,,,,,IMAGES_EXP_mp4_40/ANIMEES/11-ANIMEES --- NEUTRES /video7.mp4,IMAGES_EXP_mp4_40/ANIMEES/11-ANIMEES --- NEUTRES /video6.mp4,,,,,,,,,,,,957.7114,958.5833,0.538439806,-0.31041097,1,0,0,0.8702,Vrai,0,23,23,23,1,,
,,,,,524648,001,2025-02-25_20h07.15.941,Emotion.Memoire.2024,2024.1.5,MacIntel,20,,,,,,,,,,,,,,IMAGES_EXP_mp4_40/FIXES/FIX-NEGATIF-mp4/Image8.mp4,IMAGES_EXP_mp4_40/ANIMEES/11-ANIMEES --- NEUTRES /video5.mp4,,,,,,,,,,,,958.5838,959.3709,0.538439806,-0.31041097,1,0,0,0.7864,Vrai,0,24,24,24,1,,
,,,,,524648,001,2025-02-25_20h07.15.941,Emotion.Memoire.2024,2024.1.5,MacIntel,20,,,,,,,,,,,,,,IMAGES_EXP_mp4_40/FIXES/FIX-NEGATIF-mp4/Image2.mp4,DISTRACTEURS-40/DIST.ANIMÉES-20/10.NÉGATIFS/Dist.animee.negatif5.mp4,,,,,,,,,,,,959.3713,961.3727,-0.510298564,-0.272017551,1,0,0,1.9937,Faux,0,25,25,25,1,,
,,,,,524648,001,2025-02-25_20h07.15.941,Emotion.Memoire.2024,2024.1.5,MacIntel,20,,,,,,,,,,,,,,IMAGES_EXP_mp4_40/FIXES/FIX-NEUTRE-mp4/image7.mp4,DISTRACTEURS-40/DIST.ANIMÉES-20/10.NEUTRES/Dist.animee.neutre4.mp4,,,,,,,,,,,,961.3732,963.1798,-0.495141466,-0.28275472,1,0,0,1.805,Faux,0,26,26,26,1,,
,,,,,524648,001,2025-02-25_20h07.15.941,Emotion.Memoire.2024,2024.1.5,MacIntel,20,,,,,,,,,,,,,,IMAGES_EXP_mp4_40/ANIMEES/11-ANIMEES --- NEUTRES /video4.mp4,DISTRACTEURS-40/DIST.FIXES-20/10.NEUTRES /Dist.fix.neutre10.mp4,,,,,,,,,,,,963.1804,964.7028,-0.528030735,-0.271897244,1,0,0,1.5212,Faux,0,27,27,27,1,,
,,,,,524648,001,2025-02-25_20h07.15.941,Emotion.Memoire.2024,2024.1.5,MacIntel,20,,,,,,,,,,,,,,IMAGES_EXP_mp4_40/FIXES/FIX-NEGATIF-mp4/Image1.mp4,IMAGES_EXP_mp4_40/FIXES/FIX-NEGATIF-mp4/Image3.mp4,,,,,,,,,,,,964.7033,966.0227,0.502160373,-0.299369642,1,0,0,1.3168,Vrai,0,28,28,28,1,,
,,,,,524648,001,2025-02-25_20h07.15.941,Emotion.Memoire.2024,2024.1.5,MacIntel,20,,,,,,,,,,,,,,IMAGES_EXP_mp4_40/ANIMEES/10- ANIMEES --NEGATIVES /Video10.mp4,DISTRACTEURS-40/DIST.FIXES-20/10.NÉGATIFS/Dist.fix.negatif6.mp4,,,,,,,,,,,,966.0232,967.6095,-0.454219971,-0.279650472,1,0,0,1.5827,Faux,0,29,29,29,1,,
,,,,,524648,001,2025-02-25_20h07.15.941,Emotion.Memoire.2024,2024.1.5,MacIntel,20,,,,,,,,,,,,,,IMAGES_EXP_mp4_40/ANIMEES/11-ANIMEES --- NEUTRES /video8.mp4,IMAGES_EXP_mp4_40/ANIMEES/11-ANIMEES --- NEUTRES /video1.mp4,,,,,,,,,,,,967.6098,968.8437,0.537932536,-0.317900933,1,0,0,1.2313,Vrai,0,30,30,30,1,,
,,,,,524648,001,2025-02-25_20h07.15.941,Emotion.Memoire.2024,2024.1.5,MacIntel,20,,,,,,,,,,,,,,IMAGES_EXP_mp4_40/FIXES/FIX-NEUTRE-mp4/image6.mp4,IMAGES_EXP_mp4_40/FIXES/FIX-NEUTRE-mp4/image9.mp4,,,,,,,,,,,,968.8441,970.7459,0.425695801,-0.267388034,1,0,0,1.9003,Vrai,0,31,31,31,1,,
,,,,,524648,001,2025-02-25_20h07.15.941,Emotion.Memoire.2024,2024.1.5,MacIntel,20,,,,,,,,,,,,,,IMAGES_EXP_mp4_40/ANIMEES/10- ANIMEES --NEGATIVES /Video2.mp4,IMAGES_EXP_mp4_40/ANIMEES/10- ANIMEES --NEGATIVES /Video6.mp4,,,,,,,,,,,,970.7463,971.4172,0.424392632,-0.267388034,1,0,0,0.67,Vrai,0,32,32,32,1,,
,,,,,524648,001,2025-02-25_20h07.15.941,Emotion.Memoire.2024,2024.1.5,MacIntel,20,,,,,,,,,,,,,,IMAGES_EXP_mp4_40/ANIMEES/10- ANIMEES --NEGATIVES /Video3.mp4,IMAGES_EXP_mp4_40/ANIMEES/11-ANIMEES --- NEUTRES /video3.mp4,,,,,,,,,,,,971.418,972.1746,0.424392632,-0.267388034,1,0,0,0.7532,Vrai,0,33,33,33,1,,
,,,,,524648,001,2025-02-25_20h07.15.941,Emotion.Memoire.2024,2024.1.5,MacIntel,20,,,,,,,,,,,,,,IMAGES_EXP_mp4_40/FIXES/FIX-NEUTRE-mp4/image2.mp4,DISTRACTEURS-40/DIST.ANIMÉES-20/10.NÉGATIFS/Dist.animee.negatif7.mp4,,,,,,,,,,,,972.1751,979.0112,-0.473423123,-0.291323581,1,0,0,6.833,Faux,0,34,34,34,1,,
,,,,,524648,001,2025-02-25_20h07.15.941,Emotion.Memoire.2024,2024.1.5,MacIntel,20,,,,,,,,,,,,,,IMAGES_EXP_mp4_40/FIXES/FIX-NEUTRE-mp4/image3.mp4,IMAGES_EXP_mp4_40/ANIMEES/11-ANIMEES --- NEUTRES /video9.mp4,,,,,,,,,,,,979.0118,980.6109,0.499888238,-0.299785088,1,0,0,1.5971,Vrai,0,35,35,35,1,,
,,,,,524648,001,2025-02-25_20h07.15.941,Emotion.Memoire.2024,2024.1.5,MacIntel,20,,,,,,,,,,,,,,IMAGES_EXP_mp4_40/FIXES/FIX-NEGATIF-mp4/Image9.mp4,DISTRACTEURS-40/DIST.ANIMÉES-20/10.NEUTRES/Dist.animee.neutre6.mp4,,,,,,,,,,,,980.6114,982.1712,-0.498220079,-0.283071289,1,0,0,1.5589,Faux,0,36,36,36,1,,
,,,,,524648,001,2025-02-25_20h07.15.941,Emotion.Memoire.2024,2024.1.5,MacIntel,20,,,,,,,,,,,,,,IMAGES_EXP_mp4_40/FIXES/FIX-NEGATIF-mp4/Image7.mp4,IMAGES_EXP_mp4_40/FIXES/FIX-NEGATIF-mp4/Image8.mp4,,,,,,,,,,,,982.1724,984.088,0.466381022,-0.318470595,1,0,0,1.915,Vrai,0,37,37,37,1,,
,,,,,524648,001,2025-02-25_20h07.15.941,Emotion.Memoire.2024,2024.1.5,MacIntel,20,,,,,,,,,,,,,,IMAGES_EXP_mp4_40/ANIMEES/10- ANIMEES --NEGATIVES /Video6.mp4,IMAGES_EXP_mp4_40/FIXES/FIX-NEUTRE-mp4/image8.mp4,,,,,,,,,,,,984.0885,984.9758,0.466381022,-0.318470595,1,0,0,0.8852,Vrai,0,38,38,38,1,,
,,,,,524648,001,2025-02-25_20h07.15.941,Emotion.Memoire.2024,2024.1.5,MacIntel,20,,,,,,,,,,,,,,IMAGES_EXP_mp4_40/FIXES/FIX-NEUTRE-mp4/image1.mp4,IMAGES_EXP_mp4_40/ANIMEES/11-ANIMEES --- NEUTRES /video7.mp4,,,,,,,,,,,,984.9761,985.7754,0.466381022,-0.318470595,1,0,0,0.7987,Vrai,0,39,39,39,1,,
,,,,,524648,001,2025-02-25_20h07.15.941,Emotion.Memoire.2024,2024.1.5,MacIntel,20,,,,,,,,,,,,,,IMAGES_EXP_mp4_40/ANIMEES/10- ANIMEES --NEGATIVES /Video1.mp4,DISTRACTEURS-40/DIST.ANIMÉES-20/10.NÉGATIFS/Dist.animee.negatif1.mp4,,,,,,,,,,,,985.7759,987.3416,-0.504943373,-0.299639825,1,0,0,1.564,Faux,0,40,40,40,1,,
,,,,,524648,001,2025-02-25_20h07.15.941,Emotion.Memoire.2024,2024.1.5,MacIntel,20,,,,,,,,,,,,,,,DISTRACTEURS-40/DIST.FIXES-20/10.NEUTRES /Dist.fix.neutre9.mp4,,,,,,,,,,,,987.3419,988.4358,-0.489919501,-0.290483805,1,0,0,1.0929,Faux,0,41,41,41,1,,
,,,,,524648,001,2025-02-25_20h07.15.941,Emotion.Memoire.2024,2024.1.5,MacIntel,20,,,,,,,,,,,,,,,DISTRACTEURS-40/DIST.FIXES-20/10.NÉGATIFS/Dist.fix.negatif7.mp4,,,,,,,,,,,,988.4363,989.4824,-0.489919501,-0.290483805,1,0,0,1.0441,Faux,0,42,42,42,1,,
,,,,,524648,001,2025-02-25_20h07.15.941,Emotion.Memoire.2024,2024.1.5,MacIntel,20,,,,,,,,,,,,,,,DISTRACTEURS-40/DIST.ANIMÉES-20/10.NEUTRES/Dist.animee.neutre9.mp4,,,,,,,,,,,,989.4831,990.2811,-0.489919501,-0.290483805,1,0,0,0.7869,Faux,0,43,43,43,1,,
,,,,,524648,001,2025-02-25_20h07.15.941,Emotion.Memoire.2024,2024.1.5,MacIntel,20,,,,,,,,,,,,,,,DISTRACTEURS-40/DIST.FIXES-20/10.NÉGATIFS/Dist.fix.negatif1.mp4,,,,,,,,,,,,990.2816,991.0241,-0.489919501,-0.290483805,1,0,0,0.7409,Faux,0,44,44,44,1,,
,,,,,524648,001,2025-02-25_20h07.15.941,Emotion.Memoire.2024,2024.1.5,MacIntel,20,,,,,,,,,,,,,,,DISTRACTEURS-40/DIST.ANIMÉES-20/10.NÉGATIFS/Dist.animee.negatif6.mp4,,,,,,,,,,,,991.0244,991.7382,-0.489919501,-0.290483805,1,0,0,0.7117,Faux,0,45,45,45,1,,
,,,,,524648,001,2025-02-25_20h07.15.941,Emotion.Memoire.2024,2024.1.5,MacIntel,20,,,,,,,,,,,,,,,DISTRACTEURS-40/DIST.ANIMÉES-20/10.NÉGATIFS/Dist.animee.negatif2.mp4,,,,,,,,,,,,991.7385,992.7496,-0.489919501,-0.290483805,1,0,0,1.008,Faux,0,46,46,46,1,,
,,,,,524648,001,2025-02-25_20h07.15.941,Emotion.Memoire.2024,2024.1.5,MacIntel,20,,,,,,,,,,,,,,,IMAGES_EXP_mp4_40/FIXES/FIX-NEGATIF-mp4/Image4.mp4,,,,,,,,,,,,992.7506,994.4131,0.489969754,-0.321396823,1,0,0,1.6608,Vrai,0,47,47,47,1,,
,,,,,524648,001,2025-02-25_20h07.15.941,Emotion.Memoire.2024,2024.1.5,MacIntel,20,,,,,,,,,,,,,,,IMAGES_EXP_mp4_40/ANIMEES/10- ANIMEES --NEGATIVES /Video7.mp4,,,,,,,,,,,,994.4137,996.0091,0.498805881,-0.304323934,1,0,0,1.5906,Vrai,0,48,48,48,1,,
,,,,,524648,001,2025-02-25_20h07.15.941,Emotion.Memoire.2024,2024.1.5,MacIntel,20,,,,,,,,,,,,,,,IMAGES_EXP_mp4_40/FIXES/FIX-NEUTRE-mp4/image4.mp4,,,,,,,,,,,,996.0099,996.8859,0.498805881,-0.304323934,1,0,0,0.8721,Vrai,0,49,49,49,1,,
,,,,,524648,001,2025-02-25_20h07.15.941,Emotion.Memoire.2024,2024.1.5,MacIntel,20,,,,,,,,,,,,,,,DISTRACTEURS-40/DIST.FIXES-20/10.NÉGATIFS/Dist.fix.negatif5.mp4,,,,,,,,,,,,996.8862,999.0094,-0.514508192,-0.293445638,1,0,0,2.1033,Faux,0,50,50,50,1,,
,,,,,524648,001,2025-02-25_20h07.15.941,Emotion.Memoire.2024,2024.1.5,MacIntel,20,,,,,,,,,,,,,,,DISTRACTEURS-40/DIST.ANIMÉES-20/10.NÉGATIFS/Dist.animee.negatif9.mp4,,,,,,,,,,,,999.01,1000.0521,-0.514508192,-0.293445638,1,0,0,1.0342,Faux,0,51,51,51,1,,
,,,,,524648,001,2025-02-25_20h07.15.941,Emotion.Memoire.2024,2024.1.5,MacIntel,20,,,,,,,,,,,,,,,IMAGES_EXP_mp4_40/ANIMEES/11-ANIMEES --- NEUTRES /video2.mp4,,,,,,,,,,,,1000.0534,1001.4575,0.426203071,-0.312908393,1,0,0,1.396,Vrai,0,52,52,52,1,,
,,,,,524648,001,2025-02-25_20h07.15.941,Emotion.Memoire.2024,2024.1.5,MacIntel,20,,,,,,,,,,,,,,,DISTRACTEURS-40/DIST.ANIMÉES-20/10.NEUTRES/Dist.animee.neutre5.mp4,,,,,,,,,,,,1001.458,1004.5619,-0.483765259,-0.293356662,1,0,0,3.0986,Faux,0,53,53,53,1,,
,,,,,524648,001,2025-02-25_20h07.15.941,Emotion.Memoire.2024,2024.1.5,MacIntel,20,,,,,,,,,,,,,,,IMAGES_EXP_mp4_40/FIXES/FIX-NEGATIF-mp4/Image7.mp4,,,,,,,,,,,,1004.5624,1006.4855,0.482064616,-0.310790744,1,0,0,1.9203,Vrai,0,54,54,54,1,,
,,,,,524648,001,2025-02-25_20h07.15.941,Emotion.Memoire.2024,2024.1.5,MacIntel,20,,,,,,,,,,,,,,,IMAGES_EXP_mp4_40/FIXES/FIX-NEGATIF-mp4/Image6.mp4,,,,,,,,,,,,1006.487,1007.8411,0.519633653,-0.314487033,1,0,0,1.3496,Vrai,0,55,55,55,1,,
,,,,,524648,001,2025-02-25_20h07.15.941,Emotion.Memoire.2024,2024.1.5,MacIntel,20,,,,,,,,,,,,,,,IMAGES_EXP_mp4_40/FIXES/FIX-NEGATIF-mp4/Image5.mp4,,,,,,,,,,,,1007.8417,1008.6,0.519633653,-0.314487033,1,0,0,0.7542,Vrai,0,56,56,56,1,,
,,,,,524648,001,2025-02-25_20h07.15.941,Emotion.Memoire.2024,2024.1.5,MacIntel,20,,,,,,,,,,,,,,,IMAGES_EXP_mp4_40/ANIMEES/11-ANIMEES --- NEUTRES /video10.mp4,,,,,,,,,,,,1008.6011,1009.3869,0.519633653,-0.314487033,1,0,0,0.7792,Vrai,0,57,57,57,1,,
,,,,,524648,001,2025-02-25_20h07.15.941,Emotion.Memoire.2024,2024.1.5,MacIntel,20,,,,,,,,,,,,,,,DISTRACTEURS-40/DIST.FIXES-20/10.NEUTRES /Dist.fix.neutre4.mp4,,,,,,,,,,,,1009.3882,1010.7482,-0.465086093,-0.294800754,1,0,0,1.3563,Faux,0,58,58,58,1,,
,,,,,524648,001,2025-02-25_20h07.15.941,Emotion.Memoire.2024,2024.1.5,MacIntel,20,,,,,,,,,,,,,,,IMAGES_EXP_mp4_40/ANIMEES/11-ANIMEES --- NEUTRES /video4.mp4,,,,,,,,,,,,1010.7486,1011.9471,0.444398329,-0.293572456,1,0,0,1.192,Vrai,0,59,59,59,1,,
,,,,,524648,001,2025-02-25_20h07.15.941,Emotion.Memoire.2024,2024.1.5,MacIntel,20,,,,,,,,,,,,,,,DISTRACTEURS-40/DIST.FIXES-20/10.NEUTRES /Dist.fix.neutre6.mp4,,,,,,,,,,,,1011.9479,1013.5575,-0.507924873,-0.310603231,1,0,0,1.6017,Faux,0,60,60,60,1,,
,,,,,524648,001,2025-02-25_20h07.15.941,Emotion.Memoire.2024,2024.1.5,MacIntel,20,,,,,,,,,,,,,,,DISTRACTEURS-40/DIST.FIXES-20/10.NEUTRES /Dist.fix.neutre3.mp4,,,,,,,,,,,,1013.5579,1015.1378,-0.520321113,-0.278091363,1,0,0,1.5693,Faux,0,61,61,61,1,,
,,,,,524648,001,2025-02-25_20h07.15.941,Emotion.Memoire.2024,2024.1.5,MacIntel,20,,,,,,,,,,,,,,,DISTRACTEURS-40/DIST.FIXES-20/10.NÉGATIFS/Dist.fix.negatif10.mp4,,,,,,,,,,,,1015.1382,1015.9718,-0.520321113,-0.278091363,1,0,0,0.8308,Faux,0,62,62,62,1,,
,,,,,524648,001,2025-02-25_20h07.15.941,Emotion.Memoire.2024,2024.1.5,MacIntel,20,,,,,,,,,,,,,,,IMAGES_EXP_mp4_40/ANIMEES/10- ANIMEES --NEGATIVES /Video1.mp4,,,,,,,,,,,,1015.973,1017.8507,0.44843316,-0.277197876,1,0,0,1.8699,Vrai,0,63,63,63,1,,
,,,,,524648,001,2025-02-25_20h07.15.941,Emotion.Memoire.2024,2024.1.5,MacIntel,20,,,,,,,,,,,,,,,DISTRACTEURS-40/DIST.FIXES-20/10.NÉGATIFS/Dist.fix.negatif9.mp4,,,,,,,,,,,,1017.8512,1023.1666,-0.476475559,-0.290522054,1,0,0,5.3141,Faux,0,64,64,64,1,,
,,,,,524648,001,2025-02-25_20h07.15.941,Emotion.Memoire.2024,2024.1.5,MacIntel,20,,,,,,,,,,,,,,,DISTRACTEURS-40/DIST.FIXES-20/10.NÉGATIFS/Dist.fix.negatif2.mp4,,,,,,,,,,,,1023.1671,1030.1901,-0.487100084,-0.293497789,1,0,0,7.0208,Faux,0,65,65,65,1,,
,,,,,524648,001,2025-02-25_20h07.15.941,Emotion.Memoire.2024,2024.1.5,MacIntel,20,,,,,,,,,,,,,,,IMAGES_EXP_mp4_40/FIXES/FIX-NEUTRE-mp4/image10.mp4,,,,,,,,,,,,1030.1925,1031.8574,0.474039849,-0.289821506,1,0,0,1.6563,Vrai,0,66,66,66,1,,
,,,,,524648,001,2025-02-25_20h07.15.941,Emotion.Memoire.2024,2024.1.5,MacIntel,20,,,,,,,,,,,,,,,IMAGES_EXP_mp4_40/FIXES/FIX-NEGATIF-mp4/Image1.mp4,,,,,,,,,,,,1031.8579,1033.1697,0.493445638,-0.306128743,1,0,0,1.3075,Vrai,0,67,67,67,1,,
,,,,,524648,001,2025-02-25_20h07.15.941,Emotion.Memoire.2024,2024.1.5,MacIntel,20,,,,,,,,,,,,,,,IMAGES_EXP_mp4_40/ANIMEES/10- ANIMEES --NEGATIVES /Video3.mp4,,,,,,,,,,,,1033.1701,1037.096,0.492656521,-0.305612115,1,0,0,3.9246,Vrai,0,68,68,68,1,,
,,,,,524648,001,2025-02-25_20h07.15.941,Emotion.Memoire.2024,2024.1.5,MacIntel,20,,,,,,,,,,,,,,,DISTRACTEURS-40/DIST.FIXES-20/10.NEUTRES /Dist.fix.neutre1.mp4,,,,,,,,,,,,1037.0974,1038.4712,-0.494574551,-0.272917209,1,0,0,1.3726,Faux,0,69,69,69,1,,
,,,,,524648,001,2025-02-25_20h07.15.941,Emotion.Memoire.2024,2024.1.5,MacIntel,20,,,,,,,,,,,,,,,DISTRACTEURS-40/DIST.FIXES-20/10.NÉGATIFS/Dist.fix.negatif3.mp4,,,,,,,,,,,,1038.4718,1039.6009,-0.494574551,-0.273054267,1,0,0,1.1258,Faux,0,70,70,70,1,,
,,,,,524648,001,2025-02-25_20h07.15.941,Emotion.Memoire.2024,2024.1.5,MacIntel,20,,,,,,,,,,,,,,,IMAGES_EXP_mp4_40/FIXES/FIX-NEUTRE-mp4/image3.mp4,,,,,,,,,,,,1039.6017,1047.7683,-0.486367323,-0.284867757,1,0,0,8.1599,Faux,0,71,71,71,1,,
,,,,,524648,001,2025-02-25_20h07.15.941,Emotion.Memoire.2024,2024.1.5,MacIntel,20,,,,,,,,,,,,,,,IMAGES_EXP_mp4_40/FIXES/FIX-NEGATIF-mp4/Image10.mp4,,,,,,,,,,,,1047.7689,1049.2605,0.457036133,-0.286847331,1,0,0,1.4875,Vrai,0,72,72,72,1,,
,,,,,524648,001,2025-02-25_20h07.15.941,Emotion.Memoire.2024,2024.1.5,MacIntel,20,,,,,,,,,,,,,,,IMAGES_EXP_mp4_40/FIXES/FIX-NEUTRE-mp4/image1.mp4,,,,,,,,,,,,1049.2611,1050.5954,0.537216254,-0.326879272,1,0,0,1.332,Vrai,0,73,73,73,1,,
,,,,,524648,001,2025-02-25_20h07.15.941,Emotion.Memoire.2024,2024.1.5,MacIntel,20,,,,,,,,,,,,,,,DISTRACTEURS-40/DIST.ANIMÉES-20/10.NEUTRES/Dist.animee.neutre8.mp4,,,,,,,,,,,,1050.5957,1051.8313,-0.506680603,-0.280773655,1,0,0,1.2333,Faux,0,74,74,74,1,,
,,,,,524648,001,2025-02-25_20h07.15.941,Emotion.Memoire.2024,2024.1.5,MacIntel,20,,,,,,,,,,,,,,,DISTRACTEURS-40/DIST.FIXES-20/10.NÉGATIFS/Dist.fix.negatif4.mp4,,,,,,,,,,,,1051.8317,1052.9789,-0.506680603,-0.280773655,1,0,0,1.1434,Faux,0,75,75,75,1,,
,,,,,524648,001,2025-02-25_20h07.15.941,Emotion.Memoire.2024,2024.1.5,MacIntel,20,,,,,,,,,,,,,,,DISTRACTEURS-40/DIST.ANIMÉES-20/10.NÉGATIFS/Dist.animee.negatif3.mp4,,,,,,,,,,,,1052.9796,1054.0879,-0.506680603,-0.280773655,1,0,0,1.1052,Faux,0,76,76,76,1,,
,,,,,524648,001,2025-02-25_20h07.15.941,Emotion.Memoire.2024,2024.1.5,MacIntel,20,,,,,,,,,,,,,,,DISTRACTEURS-40/DIST.ANIMÉES-20/10.NEUTRES/Dist.animee.neutre2.mp4,,,,,,,,,,,,1054.0883,1054.88,-0.506680603,-0.280773655,1,0,0,0.7888,Faux,0,77,77,77,1,,
,,,,,524648,001,2025-02-25_20h07.15.941,Emotion.Memoire.2024,2024.1.5,MacIntel,20,,,,,,,,,,,,,,,IMAGES_EXP_mp4_40/ANIMEES/10- ANIMEES --NEGATIVES /Video9.mp4,,,,,,,,,,,,1054.8803,1056.6225,0.448329264,-0.285245633,1,0,0,1.7316,Vrai,0,78,78,78,1,,
,,,,,524648,001,2025-02-25_20h07.15.941,Emotion.Memoire.2024,2024.1.5,MacIntel,20,,,,,,,,,,,,,,,DISTRACTEURS-40/DIST.ANIMÉES-20/10.NEUTRES/Dist.animee.neutre7.mp4,,,,,,,,,,,,1056.623,1057.8522,-0.508371853,-0.286808404,1,0,0,1.2265,Faux,0,79,79,79,1,,
,,,,,524648,001,2025-02-25_20h07.15.941,Emotion.Memoire.2024,2024.1.5,MacIntel,20,,,,,,,,,,,,,,,,,,,,,,,,,,,,,,,,,,,,,,,,,1057.8669,1072.8453
