Consigne.started,Consigne.stopped,Key_resp1.keys,Key_resp1.rt,Key_resp1.duration,participant,session,date,expName,psychopyVersion,OS,frameRate,IMAGES.started,IMAGES.stopped,SAM.started,SAM.stopped,Plaisir.response,Plaisir.rt,EVEIL.response,EVEIL.rt,trials.thisRepN,trials.thisTrialN,trials.thisN,trials.thisIndex,trials.ran,ImageFile,ImagesDistracteursFile,Test,Calcul.started,Calcul.stopped,Key_response.keys,Key_response.rt,Key_response.duration,Consigne_reco.started,Consigne_reco.stopped,key_resp_reconn.keys,key_resp_reconn.rt,key_resp_reconn.duration,DISTRACTEURS.started,DISTRACTEURS.stopped,mouse.x,mouse.y,mouse.leftButton,mouse.midButton,mouse.rightButton,mouse.time,mouse.clicked_name,trials_2.thisRepN,trials_2.thisTrialN,trials_2.thisN,trials_2.thisIndex,trials_2.ran,MERCI.started,MERCI.stopped
0,53.406,space,53.329,,842187,001,2025-03-31_11h38.47.672,Emotion.Memoire.2024,2024.1.5,MacIntel,19.60784314,,,,,,,,,,,,,,,,,,,,,,,,,,,,,,,,,,,,,,,,,,
,,,,,842187,001,2025-03-31_11h38.47.672,Emotion.Memoire.2024,2024.1.5,MacIntel,19.60784314,53.418,63.426,63.431,87.66,3,11.515,5,24.227,0,0,0,0,1,IMAGES_EXP_mp4_40/FIXES/FIX-NEGATIF-mp4/Image6.mp4,DISTRACTEURS-40/DIST.ANIMÉES-20/10.NÉGATIFS/Dist.animee.negatif10.mp4,IMAGES_EXP_mp4_40/ANIMEES/10- ANIMEES --NEGATIVES /Video1.mp4,,,,,,,,,,,,,,,,,,,,,,,,,,
,,,,,842187,001,2025-03-31_11h38.47.672,Emotion.Memoire.2024,2024.1.5,MacIntel,19.60784314,87.665,97.659,97.66,116.525,7,3.953,3,18.855,0,1,1,1,1,IMAGES_EXP_mp4_40/FIXES/FIX-NEUTRE-mp4/image9.mp4,DISTRACTEURS-40/DIST.ANIMÉES-20/10.NEUTRES/Dist.animee.neutre3.mp4,DISTRACTEURS-40/DIST.FIXES-20/10.NÉGATIFS/Dist.fix.negatif3.mp4,,,,,,,,,,,,,,,,,,,,,,,,,,
,,,,,842187,001,2025-03-31_11h38.47.672,Emotion.Memoire.2024,2024.1.5,MacIntel,19.60784314,116.526,126.525,126.526,137.226,2,5.707,5,10.698,0,2,2,2,1,IMAGES_EXP_mp4_40/FIXES/FIX-NEGATIF-mp4/Image3.mp4,IMAGES_EXP_mp4_40/ANIMEES/10- ANIMEES --NEGATIVES /Video2.mp4,DISTRACTEURS-40/DIST.FIXES-20/10.NÉGATIFS/Dist.fix.negatif5.mp4,,,,,,,,,,,,,,,,,,,,,,,,,,
,,,,,842187,001,2025-03-31_11h38.47.672,Emotion.Memoire.2024,2024.1.5,MacIntel,19.60784314,137.227,147.225,147.226,153.892,3,4.842,6,6.651,0,3,3,3,1,IMAGES_EXP_mp4_40/FIXES/FIX-NEGATIF-mp4/Image4.mp4,IMAGES_EXP_mp4_40/FIXES/FIX-NEUTRE-mp4/image6.mp4,,,,,,,,,,,,,,,,,,,,,,,,,,,
,,,,,842187,001,2025-03-31_11h38.47.672,Emotion.Memoire.2024,2024.1.5,MacIntel,19.60784314,153.892,163.892,163.893,172.525,2,1.685,6,8.62,0,4,4,4,1,IMAGES_EXP_mp4_40/FIXES/FIX-NEGATIF-mp4/Image10.mp4,IMAGES_EXP_mp4_40/FIXES/FIX-NEUTRE-mp4/image2.mp4,,,,,,,,,,,,,,,,,,,,,,,,,,,
,,,,,842187,001,2025-03-31_11h38.47.672,Emotion.Memoire.2024,2024.1.5,MacIntel,19.60784314,172.526,182.526,182.526,189.758,7,4.236,2,7.204,0,5,5,5,1,IMAGES_EXP_mp4_40/ANIMEES/11-ANIMEES --- NEUTRES /video10.mp4,DISTRACTEURS-40/DIST.FIXES-20/10.NEUTRES /Dist.fix.neutre7.mp4,,,,,,,,,,,,,,,,,,,,,,,,,,,
,,,,,842187,001,2025-03-31_11h38.47.672,Emotion.Memoire.2024,2024.1.5,MacIntel,19.60784314,189.759,199.758,199.759,211.091,3,7.437,3,11.307,0,6,6,6,1,IMAGES_EXP_mp4_40/ANIMEES/10- ANIMEES --NEGATIVES /Video4.mp4,DISTRACTEURS-40/DIST.ANIMÉES-20/10.NÉGATIFS/Dist.animee.negatif4.mp4,,,,,,,,,,,,,,,,,,,,,,,,,,,
,,,,,842187,001,2025-03-31_11h38.47.672,Emotion.Memoire.2024,2024.1.5,MacIntel,19.60784314,211.092,221.091,221.092,233.825,6,9.355,2,12.728,0,7,7,7,1,IMAGES_EXP_mp4_40/FIXES/FIX-NEUTRE-mp4/image10.mp4,IMAGES_EXP_mp4_40/FIXES/FIX-NEGATIF-mp4/Image2.mp4,,,,,,,,,,,,,,,,,,,,,,,,,,,
,,,,,842187,001,2025-03-31_11h38.47.672,Emotion.Memoire.2024,2024.1.5,MacIntel,19.60784314,233.825,243.725,243.725,247.724,2,1.603,6,3.997,0,8,8,8,1,IMAGES_EXP_mp4_40/ANIMEES/10- ANIMEES --NEGATIVES /Video1.mp4,IMAGES_EXP_mp4_40/FIXES/FIX-NEGATIF-mp4/Image9.mp4,,,,,,,,,,,,,,,,,,,,,,,,,,,
,,,,,842187,001,2025-03-31_11h38.47.672,Emotion.Memoire.2024,2024.1.5,MacIntel,19.60784314,247.725,257.724,257.725,261.891,2,1.754,7,4.146,0,9,9,9,1,IMAGES_EXP_mp4_40/FIXES/FIX-NEUTRE-mp4/image4.mp4,DISTRACTEURS-40/DIST.FIXES-20/10.NEUTRES /Dist.fix.neutre8.mp4,,,,,,,,,,,,,,,,,,,,,,,,,,,
,,,,,842187,001,2025-03-31_11h38.47.672,Emotion.Memoire.2024,2024.1.5,MacIntel,19.60784314,261.892,271.891,271.891,277.791,7,2.391,2,5.869,0,10,10,10,1,IMAGES_EXP_mp4_40/ANIMEES/11-ANIMEES --- NEUTRES /video6.mp4,DISTRACTEURS-40/DIST.ANIMÉES-20/10.NÉGATIFS/Dist.animee.negatif8.mp4,,,,,,,,,,,,,,,,,,,,,,,,,,,
,,,,,842187,001,2025-03-31_11h38.47.672,Emotion.Memoire.2024,2024.1.5,MacIntel,19.60784314,277.792,287.791,287.791,299.124,2,6.195,5,11.319,0,11,11,11,1,IMAGES_EXP_mp4_40/ANIMEES/11-ANIMEES --- NEUTRES /video9.mp4,IMAGES_EXP_mp4_40/ANIMEES/11-ANIMEES --- NEUTRES /video8.mp4,,,,,,,,,,,,,,,,,,,,,,,,,,,
,,,,,842187,001,2025-03-31_11h38.47.672,Emotion.Memoire.2024,2024.1.5,MacIntel,19.60784314,299.125,309.124,309.125,313.458,7,2.603,2,4.307,0,12,12,12,1,IMAGES_EXP_mp4_40/FIXES/FIX-NEUTRE-mp4/image8.mp4,IMAGES_EXP_mp4_40/ANIMEES/10- ANIMEES --NEGATIVES /Video8.mp4,,,,,,,,,,,,,,,,,,,,,,,,,,,
,,,,,842187,001,2025-03-31_11h38.47.672,Emotion.Memoire.2024,2024.1.5,MacIntel,19.60784314,313.458,323.457,323.459,329.924,7,4.87,5,6.442,0,13,13,13,1,IMAGES_EXP_mp4_40/ANIMEES/11-ANIMEES --- NEUTRES /video5.mp4,DISTRACTEURS-40/DIST.FIXES-20/10.NÉGATIFS/Dist.fix.negatif8.mp4,,,,,,,,,,,,,,,,,,,,,,,,,,,
,,,,,842187,001,2025-03-31_11h38.47.672,Emotion.Memoire.2024,2024.1.5,MacIntel,19.60784314,329.925,339.924,339.925,347.09,7,4.603,3,7.153,0,14,14,14,1,IMAGES_EXP_mp4_40/ANIMEES/11-ANIMEES --- NEUTRES /video1.mp4,DISTRACTEURS-40/DIST.FIXES-20/10.NEUTRES /Dist.fix.neutre2.mp4,,,,,,,,,,,,,,,,,,,,,,,,,,,
,,,,,842187,001,2025-03-31_11h38.47.672,Emotion.Memoire.2024,2024.1.5,MacIntel,19.60784314,347.091,356.325,356.325,361.39,2,2.493,4,5.042,0,15,15,15,1,IMAGES_EXP_mp4_40/ANIMEES/10- ANIMEES --NEGATIVES /Video9.mp4,DISTRACTEURS-40/DIST.ANIMÉES-20/10.NEUTRES/Dist.animee.neutre10.mp4,,,,,,,,,,,,,,,,,,,,,,,,,,,
,,,,,842187,001,2025-03-31_11h38.47.672,Emotion.Memoire.2024,2024.1.5,MacIntel,19.60784314,361.391,370.262,370.263,377.223,2,4.169,5,6.932,0,16,16,16,1,IMAGES_EXP_mp4_40/ANIMEES/10- ANIMEES --NEGATIVES /Video8.mp4,DISTRACTEURS-40/DIST.FIXES-20/10.NEUTRES /Dist.fix.neutre5.mp4,,,,,,,,,,,,,,,,,,,,,,,,,,,
,,,,,842187,001,2025-03-31_11h38.47.672,Emotion.Memoire.2024,2024.1.5,MacIntel,19.60784314,377.224,387.224,387.225,393.957,2,3.919,6,6.719,0,17,17,17,1,IMAGES_EXP_mp4_40/FIXES/FIX-NEGATIF-mp4/Image5.mp4,DISTRACTEURS-40/DIST.ANIMÉES-20/10.NEUTRES/Dist.animee.neutre1.mp4,,,,,,,,,,,,,,,,,,,,,,,,,,,
,,,,,842187,001,2025-03-31_11h38.47.672,Emotion.Memoire.2024,2024.1.5,MacIntel,19.60784314,393.958,403.957,403.958,410.491,7,3.26,2,6.529,0,18,18,18,1,IMAGES_EXP_mp4_40/ANIMEES/11-ANIMEES --- NEUTRES /video2.mp4,IMAGES_EXP_mp4_40/FIXES/FIX-NEUTRE-mp4/image5.mp4,,,,,,,,,,,,,,,,,,,,,,,,,,,
,,,,,842187,001,2025-03-31_11h38.47.672,Emotion.Memoire.2024,2024.1.5,MacIntel,19.60784314,410.491,420.49,420.492,424.057,2,1.853,5,3.537,0,19,19,19,1,IMAGES_EXP_mp4_40/ANIMEES/10- ANIMEES --NEGATIVES /Video7.mp4,IMAGES_EXP_mp4_40/FIXES/FIX-NEUTRE-mp4/image7.mp4,,,,,,,,,,,,,,,,,,,,,,,,,,,
,,,,,842187,001,2025-03-31_11h38.47.672,Emotion.Memoire.2024,2024.1.5,MacIntel,19.60784314,424.057,448.337,448.337,464.224,7,14.049,2,15.88,0,20,20,20,1,IMAGES_EXP_mp4_40/FIXES/FIX-NEUTRE-mp4/image5.mp4,IMAGES_EXP_mp4_40/ANIMEES/10- ANIMEES --NEGATIVES /Video10.mp4,,,,,,,,,,,,,,,,,,,,,,,,,,,
,,,,,842187,001,2025-03-31_11h38.47.672,Emotion.Memoire.2024,2024.1.5,MacIntel,19.60784314,464.225,474.224,474.225,478.49,7,2.452,3,4.261,0,21,21,21,1,IMAGES_EXP_mp4_40/ANIMEES/11-ANIMEES --- NEUTRES /video3.mp4,IMAGES_EXP_mp4_40/ANIMEES/10- ANIMEES --NEGATIVES /Video4.mp4,,,,,,,,,,,,,,,,,,,,,,,,,,,
,,,,,842187,001,2025-03-31_11h38.47.672,Emotion.Memoire.2024,2024.1.5,MacIntel,19.60784314,478.491,488.49,488.491,492.457,3,2.31,5,3.945,0,22,22,22,1,IMAGES_EXP_mp4_40/ANIMEES/10- ANIMEES --NEGATIVES /Video5.mp4,IMAGES_EXP_mp4_40/ANIMEES/10- ANIMEES --NEGATIVES /Video5.mp4,,,,,,,,,,,,,,,,,,,,,,,,,,,
,,,,,842187,001,2025-03-31_11h38.47.672,Emotion.Memoire.2024,2024.1.5,MacIntel,19.60784314,492.457,502.456,502.458,505.49,3,1.833,4,3.007,0,23,23,23,1,IMAGES_EXP_mp4_40/ANIMEES/11-ANIMEES --- NEUTRES /video7.mp4,IMAGES_EXP_mp4_40/ANIMEES/11-ANIMEES --- NEUTRES /video6.mp4,,,,,,,,,,,,,,,,,,,,,,,,,,,
,,,,,842187,001,2025-03-31_11h38.47.672,Emotion.Memoire.2024,2024.1.5,MacIntel,19.60784314,505.491,515.489,515.49,524.991,5,5.803,3,9.476,0,24,24,24,1,IMAGES_EXP_mp4_40/FIXES/FIX-NEGATIF-mp4/Image8.mp4,IMAGES_EXP_mp4_40/ANIMEES/11-ANIMEES --- NEUTRES /video5.mp4,,,,,,,,,,,,,,,,,,,,,,,,,,,
,,,,,842187,001,2025-03-31_11h38.47.672,Emotion.Memoire.2024,2024.1.5,MacIntel,19.60784314,524.992,534.99,534.99,543.156,2,6.686,5,8.162,0,25,25,25,1,IMAGES_EXP_mp4_40/FIXES/FIX-NEGATIF-mp4/Image2.mp4,DISTRACTEURS-40/DIST.ANIMÉES-20/10.NÉGATIFS/Dist.animee.negatif5.mp4,,,,,,,,,,,,,,,,,,,,,,,,,,,
,,,,,842187,001,2025-03-31_11h38.47.672,Emotion.Memoire.2024,2024.1.5,MacIntel,19.60784314,543.157,553.157,553.158,569.29,2,14.629,6,16.129,0,26,26,26,1,IMAGES_EXP_mp4_40/FIXES/FIX-NEUTRE-mp4/image7.mp4,DISTRACTEURS-40/DIST.ANIMÉES-20/10.NEUTRES/Dist.animee.neutre4.mp4,,,,,,,,,,,,,,,,,,,,,,,,,,,
,,,,,842187,001,2025-03-31_11h38.47.672,Emotion.Memoire.2024,2024.1.5,MacIntel,19.60784314,569.29,579.29,579.291,582.623,8,1.52,2,3.306,0,27,27,27,1,IMAGES_EXP_mp4_40/ANIMEES/11-ANIMEES --- NEUTRES /video4.mp4,DISTRACTEURS-40/DIST.FIXES-20/10.NEUTRES /Dist.fix.neutre10.mp4,,,,,,,,,,,,,,,,,,,,,,,,,,,
,,,,,842187,001,2025-03-31_11h38.47.672,Emotion.Memoire.2024,2024.1.5,MacIntel,19.60784314,582.624,592.623,592.624,595.69,2,1.186,6,3.043,0,28,28,28,1,IMAGES_EXP_mp4_40/FIXES/FIX-NEGATIF-mp4/Image1.mp4,IMAGES_EXP_mp4_40/FIXES/FIX-NEGATIF-mp4/Image3.mp4,,,,,,,,,,,,,,,,,,,,,,,,,,,
,,,,,842187,001,2025-03-31_11h38.47.672,Emotion.Memoire.2024,2024.1.5,MacIntel,19.60784314,595.69,605.689,605.69,609.856,2,2.122,6,4.151,0,29,29,29,1,IMAGES_EXP_mp4_40/ANIMEES/10- ANIMEES --NEGATIVES /Video10.mp4,DISTRACTEURS-40/DIST.FIXES-20/10.NÉGATIFS/Dist.fix.negatif6.mp4,,,,,,,,,,,,,,,,,,,,,,,,,,,
,,,,,842187,001,2025-03-31_11h38.47.672,Emotion.Memoire.2024,2024.1.5,MacIntel,19.60784314,609.857,619.856,619.858,625.556,7,3.69,3,5.673,0,30,30,30,1,IMAGES_EXP_mp4_40/ANIMEES/11-ANIMEES --- NEUTRES /video8.mp4,IMAGES_EXP_mp4_40/ANIMEES/11-ANIMEES --- NEUTRES /video1.mp4,,,,,,,,,,,,,,,,,,,,,,,,,,,
,,,,,842187,001,2025-03-31_11h38.47.672,Emotion.Memoire.2024,2024.1.5,MacIntel,19.60784314,625.558,635.556,635.557,640.29,7,1.052,3,4.709,0,31,31,31,1,IMAGES_EXP_mp4_40/FIXES/FIX-NEUTRE-mp4/image6.mp4,IMAGES_EXP_mp4_40/FIXES/FIX-NEUTRE-mp4/image9.mp4,,,,,,,,,,,,,,,,,,,,,,,,,,,
,,,,,842187,001,2025-03-31_11h38.47.672,Emotion.Memoire.2024,2024.1.5,MacIntel,19.60784314,640.292,650.289,650.29,655.523,2,3.744,5,5.221,0,32,32,32,1,IMAGES_EXP_mp4_40/ANIMEES/10- ANIMEES --NEGATIVES /Video2.mp4,IMAGES_EXP_mp4_40/ANIMEES/10- ANIMEES --NEGATIVES /Video6.mp4,,,,,,,,,,,,,,,,,,,,,,,,,,,
,,,,,842187,001,2025-03-31_11h38.47.672,Emotion.Memoire.2024,2024.1.5,MacIntel,19.60784314,655.524,665.524,665.526,673.823,2,6.038,6,8.285,0,33,33,33,1,IMAGES_EXP_mp4_40/ANIMEES/10- ANIMEES --NEGATIVES /Video3.mp4,IMAGES_EXP_mp4_40/ANIMEES/11-ANIMEES --- NEUTRES /video3.mp4,,,,,,,,,,,,,,,,,,,,,,,,,,,
,,,,,842187,001,2025-03-31_11h38.47.672,Emotion.Memoire.2024,2024.1.5,MacIntel,19.60784314,673.825,683.823,683.824,689.223,7,4.152,3,5.371,0,34,34,34,1,IMAGES_EXP_mp4_40/FIXES/FIX-NEUTRE-mp4/image2.mp4,DISTRACTEURS-40/DIST.ANIMÉES-20/10.NÉGATIFS/Dist.animee.negatif7.mp4,,,,,,,,,,,,,,,,,,,,,,,,,,,
,,,,,842187,001,2025-03-31_11h38.47.672,Emotion.Memoire.2024,2024.1.5,MacIntel,19.60784314,689.223,699.222,699.224,702.489,7,2.036,2,3.257,0,35,35,35,1,IMAGES_EXP_mp4_40/FIXES/FIX-NEUTRE-mp4/image3.mp4,IMAGES_EXP_mp4_40/ANIMEES/11-ANIMEES --- NEUTRES /video9.mp4,,,,,,,,,,,,,,,,,,,,,,,,,,,
,,,,,842187,001,2025-03-31_11h38.47.672,Emotion.Memoire.2024,2024.1.5,MacIntel,19.60784314,702.49,712.488,712.489,720.156,5,6.531,5,7.641,0,36,36,36,1,IMAGES_EXP_mp4_40/FIXES/FIX-NEGATIF-mp4/Image9.mp4,DISTRACTEURS-40/DIST.ANIMÉES-20/10.NEUTRES/Dist.animee.neutre6.mp4,,,,,,,,,,,,,,,,,,,,,,,,,,,
,,,,,842187,001,2025-03-31_11h38.47.672,Emotion.Memoire.2024,2024.1.5,MacIntel,19.60784314,720.156,730.155,730.155,734.921,3,2.092,3,4.744,0,37,37,37,1,IMAGES_EXP_mp4_40/FIXES/FIX-NEGATIF-mp4/Image7.mp4,IMAGES_EXP_mp4_40/FIXES/FIX-NEGATIF-mp4/Image8.mp4,,,,,,,,,,,,,,,,,,,,,,,,,,,
,,,,,842187,001,2025-03-31_11h38.47.672,Emotion.Memoire.2024,2024.1.5,MacIntel,19.60784314,734.922,744.922,744.923,777.956,2,31.14,7,33.011,0,38,38,38,1,IMAGES_EXP_mp4_40/ANIMEES/10- ANIMEES --NEGATIVES /Video6.mp4,IMAGES_EXP_mp4_40/FIXES/FIX-NEUTRE-mp4/image8.mp4,,,,,,,,,,,,,,,,,,,,,,,,,,,
,,,,,842187,001,2025-03-31_11h38.47.672,Emotion.Memoire.2024,2024.1.5,MacIntel,19.60784314,777.957,787.955,787.957,791.122,2,1.91,7,3.153,0,39,39,39,1,IMAGES_EXP_mp4_40/FIXES/FIX-NEUTRE-mp4/image1.mp4,IMAGES_EXP_mp4_40/ANIMEES/11-ANIMEES --- NEUTRES /video7.mp4,,,,,,,,,,,,,,,,,,,,,,,,,,,
,,,,,842187,001,2025-03-31_11h38.47.672,Emotion.Memoire.2024,2024.1.5,MacIntel,19.60784314,,,,,,,,,,,,,,,,,791.126,1195.988,space,404.812,,,,,,,,,,,,,,,,,,,,,,
,,,,,842187,001,2025-03-31_11h38.47.672,Emotion.Memoire.2024,2024.1.5,MacIntel,19.60784314,,,,,,,,,,,,,,,,,,,,,,1195.989,1211.421,space,15.382,,,,,,,,,,,,,,,,,
,,,,,842187,001,2025-03-31_11h38.47.672,Emotion.Memoire.2024,2024.1.5,MacIntel,19.60784314,,,,,,,,,,,,,,IMAGES_EXP_mp4_40/FIXES/FIX-NEGATIF-mp4/Image6.mp4,DISTRACTEURS-40/DIST.ANIMÉES-20/10.NÉGATIFS/Dist.animee.negatif10.mp4,IMAGES_EXP_mp4_40/ANIMEES/10- ANIMEES --NEGATIVES /Video1.mp4,,,,,,,,,,,1211.437,1213.455,-0.521889401,-0.274193548,1,0,0,2,Faux,0,0,0,0,1,,
,,,,,842187,001,2025-03-31_11h38.47.672,Emotion.Memoire.2024,2024.1.5,MacIntel,19.60784314,,,,,,,,,,,,,,IMAGES_EXP_mp4_40/FIXES/FIX-NEUTRE-mp4/image9.mp4,DISTRACTEURS-40/DIST.ANIMÉES-20/10.NEUTRES/Dist.animee.neutre3.mp4,DISTRACTEURS-40/DIST.FIXES-20/10.NÉGATIFS/Dist.fix.negatif3.mp4,,,,,,,,,,,1213.457,1215.387,-0.460829493,-0.290322581,1,0,0,1.898,Faux,0,1,1,1,1,,
,,,,,842187,001,2025-03-31_11h38.47.672,Emotion.Memoire.2024,2024.1.5,MacIntel,19.60784314,,,,,,,,,,,,,,IMAGES_EXP_mp4_40/FIXES/FIX-NEGATIF-mp4/Image3.mp4,IMAGES_EXP_mp4_40/ANIMEES/10- ANIMEES --NEGATIVES /Video2.mp4,DISTRACTEURS-40/DIST.FIXES-20/10.NÉGATIFS/Dist.fix.negatif5.mp4,,,,,,,,,,,1215.388,1216.72,0.503456221,-0.291474654,1,0,0,1.331,Vrai,0,2,2,2,1,,
,,,,,842187,001,2025-03-31_11h38.47.672,Emotion.Memoire.2024,2024.1.5,MacIntel,19.60784314,,,,,,,,,,,,,,IMAGES_EXP_mp4_40/FIXES/FIX-NEGATIF-mp4/Image4.mp4,IMAGES_EXP_mp4_40/FIXES/FIX-NEUTRE-mp4/image6.mp4,,,,,,,,,,,,1216.722,1217.92,0.457373272,-0.285714286,1,0,0,1.196,Vrai,0,3,3,3,1,,
,,,,,842187,001,2025-03-31_11h38.47.672,Emotion.Memoire.2024,2024.1.5,MacIntel,19.60784314,,,,,,,,,,,,,,IMAGES_EXP_mp4_40/FIXES/FIX-NEGATIF-mp4/Image10.mp4,IMAGES_EXP_mp4_40/FIXES/FIX-NEUTRE-mp4/image2.mp4,,,,,,,,,,,,1217.92,1218.82,0.457373272,-0.285714286,1,0,0,0.898,Vrai,0,4,4,4,1,,
,,,,,842187,001,2025-03-31_11h38.47.672,Emotion.Memoire.2024,2024.1.5,MacIntel,19.60784314,,,,,,,,,,,,,,IMAGES_EXP_mp4_40/ANIMEES/11-ANIMEES --- NEUTRES /video10.mp4,DISTRACTEURS-40/DIST.FIXES-20/10.NEUTRES /Dist.fix.neutre7.mp4,,,,,,,,,,,,1218.822,1220.086,-0.438940092,-0.290322581,1,0,0,1.259,Faux,0,5,5,5,1,,
,,,,,842187,001,2025-03-31_11h38.47.672,Emotion.Memoire.2024,2024.1.5,MacIntel,19.60784314,,,,,,,,,,,,,,IMAGES_EXP_mp4_40/ANIMEES/10- ANIMEES --NEGATIVES /Video4.mp4,DISTRACTEURS-40/DIST.ANIMÉES-20/10.NÉGATIFS/Dist.animee.negatif4.mp4,,,,,,,,,,,,1220.087,1221.053,-0.440092166,-0.290322581,1,0,0,0.946,Faux,0,6,6,6,1,,
,,,,,842187,001,2025-03-31_11h38.47.672,Emotion.Memoire.2024,2024.1.5,MacIntel,19.60784314,,,,,,,,,,,,,,IMAGES_EXP_mp4_40/FIXES/FIX-NEUTRE-mp4/image10.mp4,IMAGES_EXP_mp4_40/FIXES/FIX-NEGATIF-mp4/Image2.mp4,,,,,,,,,,,,1221.055,1222.22,0.520737327,-0.30875576,1,0,0,1.163,Vrai,0,7,7,7,1,,
,,,,,842187,001,2025-03-31_11h38.47.672,Emotion.Memoire.2024,2024.1.5,MacIntel,19.60784314,,,,,,,,,,,,,,IMAGES_EXP_mp4_40/ANIMEES/10- ANIMEES --NEGATIVES /Video1.mp4,IMAGES_EXP_mp4_40/FIXES/FIX-NEGATIF-mp4/Image9.mp4,,,,,,,,,,,,1222.222,1223.32,0.5,-0.311059908,1,0,0,1.096,Vrai,0,8,8,8,1,,
,,,,,842187,001,2025-03-31_11h38.47.672,Emotion.Memoire.2024,2024.1.5,MacIntel,19.60784314,,,,,,,,,,,,,,IMAGES_EXP_mp4_40/FIXES/FIX-NEUTRE-mp4/image4.mp4,DISTRACTEURS-40/DIST.FIXES-20/10.NEUTRES /Dist.fix.neutre8.mp4,,,,,,,,,,,,1223.32,1224.653,-0.443548387,-0.293778802,1,0,0,1.328,Faux,0,9,9,9,1,,
,,,,,842187,001,2025-03-31_11h38.47.672,Emotion.Memoire.2024,2024.1.5,MacIntel,19.60784314,,,,,,,,,,,,,,IMAGES_EXP_mp4_40/ANIMEES/11-ANIMEES --- NEUTRES /video6.mp4,DISTRACTEURS-40/DIST.ANIMÉES-20/10.NÉGATIFS/Dist.animee.negatif8.mp4,,,,,,,,,,,,1224.654,1225.587,-0.453917051,-0.300691244,1,0,0,0.906,Faux,0,10,10,10,1,,
,,,,,842187,001,2025-03-31_11h38.47.672,Emotion.Memoire.2024,2024.1.5,MacIntel,19.60784314,,,,,,,,,,,,,,IMAGES_EXP_mp4_40/ANIMEES/11-ANIMEES --- NEUTRES /video9.mp4,IMAGES_EXP_mp4_40/ANIMEES/11-ANIMEES --- NEUTRES /video8.mp4,,,,,,,,,,,,1225.588,1226.687,0.410138249,-0.283410138,1,0,0,1.096,Vrai,0,11,11,11,1,,
,,,,,842187,001,2025-03-31_11h38.47.672,Emotion.Memoire.2024,2024.1.5,MacIntel,19.60784314,,,,,,,,,,,,,,IMAGES_EXP_mp4_40/FIXES/FIX-NEUTRE-mp4/image8.mp4,IMAGES_EXP_mp4_40/ANIMEES/10- ANIMEES --NEGATIVES /Video8.mp4,,,,,,,,,,,,1226.688,1227.687,0.42281106,-0.286866359,1,0,0,0.996,Vrai,0,12,12,12,1,,
,,,,,842187,001,2025-03-31_11h38.47.672,Emotion.Memoire.2024,2024.1.5,MacIntel,19.60784314,,,,,,,,,,,,,,IMAGES_EXP_mp4_40/ANIMEES/11-ANIMEES --- NEUTRES /video5.mp4,DISTRACTEURS-40/DIST.FIXES-20/10.NÉGATIFS/Dist.fix.negatif8.mp4,,,,,,,,,,,,1227.688,1228.987,-0.508064516,-0.282258065,1,0,0,1.276,Faux,0,13,13,13,1,,
,,,,,842187,001,2025-03-31_11h38.47.672,Emotion.Memoire.2024,2024.1.5,MacIntel,19.60784314,,,,,,,,,,,,,,IMAGES_EXP_mp4_40/ANIMEES/11-ANIMEES --- NEUTRES /video1.mp4,DISTRACTEURS-40/DIST.FIXES-20/10.NEUTRES /Dist.fix.neutre2.mp4,,,,,,,,,,,,1228.988,1230.387,-0.52764977,-0.309907834,1,0,0,1.393,Faux,0,14,14,14,1,,
,,,,,842187,001,2025-03-31_11h38.47.672,Emotion.Memoire.2024,2024.1.5,MacIntel,19.60784314,,,,,,,,,,,,,,IMAGES_EXP_mp4_40/ANIMEES/10- ANIMEES --NEGATIVES /Video9.mp4,DISTRACTEURS-40/DIST.ANIMÉES-20/10.NEUTRES/Dist.animee.neutre10.mp4,,,,,,,,,,,,1230.389,1232.12,-0.505760369,-0.307603687,1,0,0,1.708,Faux,0,15,15,15,1,,
,,,,,842187,001,2025-03-31_11h38.47.672,Emotion.Memoire.2024,2024.1.5,MacIntel,19.60784314,,,,,,,,,,,,,,IMAGES_EXP_mp4_40/ANIMEES/10- ANIMEES --NEGATIVES /Video8.mp4,DISTRACTEURS-40/DIST.FIXES-20/10.NEUTRES /Dist.fix.neutre5.mp4,,,,,,,,,,,,1232.12,1234.152,-0.458525346,-0.306451613,1,0,0,2.028,Faux,0,16,16,16,1,,
,,,,,842187,001,2025-03-31_11h38.47.672,Emotion.Memoire.2024,2024.1.5,MacIntel,19.60784314,,,,,,,,,,,,,,IMAGES_EXP_mp4_40/FIXES/FIX-NEGATIF-mp4/Image5.mp4,DISTRACTEURS-40/DIST.ANIMÉES-20/10.NEUTRES/Dist.animee.neutre1.mp4,,,,,,,,,,,,1234.153,1234.92,-0.458525346,-0.306451613,1,0,0,0.752,Faux,0,17,17,17,1,,
,,,,,842187,001,2025-03-31_11h38.47.672,Emotion.Memoire.2024,2024.1.5,MacIntel,19.60784314,,,,,,,,,,,,,,IMAGES_EXP_mp4_40/ANIMEES/11-ANIMEES --- NEUTRES /video2.mp4,IMAGES_EXP_mp4_40/FIXES/FIX-NEUTRE-mp4/image5.mp4,,,,,,,,,,,,1234.922,1236.087,0.443548387,-0.307603687,1,0,0,1.162,Vrai,0,18,18,18,1,,
,,,,,842187,001,2025-03-31_11h38.47.672,Emotion.Memoire.2024,2024.1.5,MacIntel,19.60784314,,,,,,,,,,,,,,IMAGES_EXP_mp4_40/ANIMEES/10- ANIMEES --NEGATIVES /Video7.mp4,IMAGES_EXP_mp4_40/FIXES/FIX-NEUTRE-mp4/image7.mp4,,,,,,,,,,,,1236.088,1236.819,0.443548387,-0.307603687,1,0,0,0.729,Vrai,0,19,19,19,1,,
,,,,,842187,001,2025-03-31_11h38.47.672,Emotion.Memoire.2024,2024.1.5,MacIntel,19.60784314,,,,,,,,,,,,,,IMAGES_EXP_mp4_40/FIXES/FIX-NEUTRE-mp4/image5.mp4,IMAGES_EXP_mp4_40/ANIMEES/10- ANIMEES --NEGATIVES /Video10.mp4,,,,,,,,,,,,1236.821,1237.653,0.443548387,-0.307603687,1,0,0,0.83,Vrai,0,20,20,20,1,,
,,,,,842187,001,2025-03-31_11h38.47.672,Emotion.Memoire.2024,2024.1.5,MacIntel,19.60784314,,,,,,,,,,,,,,IMAGES_EXP_mp4_40/ANIMEES/11-ANIMEES --- NEUTRES /video3.mp4,IMAGES_EXP_mp4_40/ANIMEES/10- ANIMEES --NEGATIVES /Video4.mp4,,,,,,,,,,,,1237.655,1238.554,0.443548387,-0.307603687,1,0,0,0.897,Vrai,0,21,21,21,1,,
,,,,,842187,001,2025-03-31_11h38.47.672,Emotion.Memoire.2024,2024.1.5,MacIntel,19.60784314,,,,,,,,,,,,,,IMAGES_EXP_mp4_40/ANIMEES/10- ANIMEES --NEGATIVES /Video5.mp4,IMAGES_EXP_mp4_40/ANIMEES/10- ANIMEES --NEGATIVES /Video5.mp4,,,,,,,,,,,,1238.557,1239.353,0.443548387,-0.307603687,1,0,0,0.795,Vrai,0,22,22,22,1,,
,,,,,842187,001,2025-03-31_11h38.47.672,Emotion.Memoire.2024,2024.1.5,MacIntel,19.60784314,,,,,,,,,,,,,,IMAGES_EXP_mp4_40/ANIMEES/11-ANIMEES --- NEUTRES /video7.mp4,IMAGES_EXP_mp4_40/ANIMEES/11-ANIMEES --- NEUTRES /video6.mp4,,,,,,,,,,,,1239.355,1240.586,0.443548387,-0.307603687,1,0,0,1.229,Vrai,0,23,23,23,1,,
,,,,,842187,001,2025-03-31_11h38.47.672,Emotion.Memoire.2024,2024.1.5,MacIntel,19.60784314,,,,,,,,,,,,,,IMAGES_EXP_mp4_40/FIXES/FIX-NEGATIF-mp4/Image8.mp4,IMAGES_EXP_mp4_40/ANIMEES/11-ANIMEES --- NEUTRES /video5.mp4,,,,,,,,,,,,1240.587,1241.52,0.443548387,-0.307603687,1,0,0,0.932,Vrai,0,24,24,24,1,,
,,,,,842187,001,2025-03-31_11h38.47.672,Emotion.Memoire.2024,2024.1.5,MacIntel,19.60784314,,,,,,,,,,,,,,IMAGES_EXP_mp4_40/FIXES/FIX-NEGATIF-mp4/Image2.mp4,DISTRACTEURS-40/DIST.ANIMÉES-20/10.NÉGATIFS/Dist.animee.negatif5.mp4,,,,,,,,,,,,1241.522,1242.887,-0.450460829,-0.270737327,1,0,0,1.337,Faux,0,25,25,25,1,,
,,,,,842187,001,2025-03-31_11h38.47.672,Emotion.Memoire.2024,2024.1.5,MacIntel,19.60784314,,,,,,,,,,,,,,IMAGES_EXP_mp4_40/FIXES/FIX-NEUTRE-mp4/image7.mp4,DISTRACTEURS-40/DIST.ANIMÉES-20/10.NEUTRES/Dist.animee.neutre4.mp4,,,,,,,,,,,,1242.888,1244.156,-0.457373272,-0.278801843,1,0,0,1.232,Faux,0,26,26,26,1,,
,,,,,842187,001,2025-03-31_11h38.47.672,Emotion.Memoire.2024,2024.1.5,MacIntel,19.60784314,,,,,,,,,,,,,,IMAGES_EXP_mp4_40/ANIMEES/11-ANIMEES --- NEUTRES /video4.mp4,DISTRACTEURS-40/DIST.FIXES-20/10.NEUTRES /Dist.fix.neutre10.mp4,,,,,,,,,,,,1244.159,1246.32,-0.49078341,-0.284562212,1,0,0,2.156,Faux,0,27,27,27,1,,
,,,,,842187,001,2025-03-31_11h38.47.672,Emotion.Memoire.2024,2024.1.5,MacIntel,19.60784314,,,,,,,,,,,,,,IMAGES_EXP_mp4_40/FIXES/FIX-NEGATIF-mp4/Image1.mp4,IMAGES_EXP_mp4_40/FIXES/FIX-NEGATIF-mp4/Image3.mp4,,,,,,,,,,,,1246.32,1247.72,0.447004608,-0.315668203,1,0,0,1.399,Vrai,0,28,28,28,1,,
,,,,,842187,001,2025-03-31_11h38.47.672,Emotion.Memoire.2024,2024.1.5,MacIntel,19.60784314,,,,,,,,,,,,,,IMAGES_EXP_mp4_40/ANIMEES/10- ANIMEES --NEGATIVES /Video10.mp4,DISTRACTEURS-40/DIST.FIXES-20/10.NÉGATIFS/Dist.fix.negatif6.mp4,,,,,,,,,,,,1247.722,1249.153,-0.474654378,-0.300691244,1,0,0,1.409,Faux,0,29,29,29,1,,
,,,,,842187,001,2025-03-31_11h38.47.672,Emotion.Memoire.2024,2024.1.5,MacIntel,19.60784314,,,,,,,,,,,,,,IMAGES_EXP_mp4_40/ANIMEES/11-ANIMEES --- NEUTRES /video8.mp4,IMAGES_EXP_mp4_40/ANIMEES/11-ANIMEES --- NEUTRES /video1.mp4,,,,,,,,,,,,1249.155,1250.22,0.497695853,-0.297235023,1,0,0,1.063,Vrai,0,30,30,30,1,,
,,,,,842187,001,2025-03-31_11h38.47.672,Emotion.Memoire.2024,2024.1.5,MacIntel,19.60784314,,,,,,,,,,,,,,IMAGES_EXP_mp4_40/FIXES/FIX-NEUTRE-mp4/image6.mp4,IMAGES_EXP_mp4_40/FIXES/FIX-NEUTRE-mp4/image9.mp4,,,,,,,,,,,,1250.222,1250.953,0.497695853,-0.297235023,1,0,0,0.729,Vrai,0,31,31,31,1,,
,,,,,842187,001,2025-03-31_11h38.47.672,Emotion.Memoire.2024,2024.1.5,MacIntel,19.60784314,,,,,,,,,,,,,,IMAGES_EXP_mp4_40/ANIMEES/10- ANIMEES --NEGATIVES /Video2.mp4,IMAGES_EXP_mp4_40/ANIMEES/10- ANIMEES --NEGATIVES /Video6.mp4,,,,,,,,,,,,1250.954,1251.853,0.497695853,-0.297235023,1,0,0,0.897,Vrai,0,32,32,32,1,,
,,,,,842187,001,2025-03-31_11h38.47.672,Emotion.Memoire.2024,2024.1.5,MacIntel,19.60784314,,,,,,,,,,,,,,IMAGES_EXP_mp4_40/ANIMEES/10- ANIMEES --NEGATIVES /Video3.mp4,IMAGES_EXP_mp4_40/ANIMEES/11-ANIMEES --- NEUTRES /video3.mp4,,,,,,,,,,,,1251.854,1252.686,0.497695853,-0.297235023,1,0,0,0.83,Vrai,0,33,33,33,1,,
,,,,,842187,001,2025-03-31_11h38.47.672,Emotion.Memoire.2024,2024.1.5,MacIntel,19.60784314,,,,,,,,,,,,,,IMAGES_EXP_mp4_40/FIXES/FIX-NEUTRE-mp4/image2.mp4,DISTRACTEURS-40/DIST.ANIMÉES-20/10.NÉGATIFS/Dist.animee.negatif7.mp4,,,,,,,,,,,,1252.688,1254.187,-0.478110599,-0.329493088,1,0,0,1.466,Faux,0,34,34,34,1,,
,,,,,842187,001,2025-03-31_11h38.47.672,Emotion.Memoire.2024,2024.1.5,MacIntel,19.60784314,,,,,,,,,,,,,,IMAGES_EXP_mp4_40/FIXES/FIX-NEUTRE-mp4/image3.mp4,IMAGES_EXP_mp4_40/ANIMEES/11-ANIMEES --- NEUTRES /video9.mp4,,,,,,,,,,,,1254.188,1255.486,0.457373272,-0.281105991,1,0,0,1.295,Vrai,0,35,35,35,1,,
,,,,,842187,001,2025-03-31_11h38.47.672,Emotion.Memoire.2024,2024.1.5,MacIntel,19.60784314,,,,,,,,,,,,,,IMAGES_EXP_mp4_40/FIXES/FIX-NEGATIF-mp4/Image9.mp4,DISTRACTEURS-40/DIST.ANIMÉES-20/10.NEUTRES/Dist.animee.neutre6.mp4,,,,,,,,,,,,1255.487,1256.753,-0.438940092,-0.266129032,1,0,0,1.195,Faux,0,36,36,36,1,,
,,,,,842187,001,2025-03-31_11h38.47.672,Emotion.Memoire.2024,2024.1.5,MacIntel,19.60784314,,,,,,,,,,,,,,IMAGES_EXP_mp4_40/FIXES/FIX-NEGATIF-mp4/Image7.mp4,IMAGES_EXP_mp4_40/FIXES/FIX-NEGATIF-mp4/Image8.mp4,,,,,,,,,,,,1256.754,1258.187,0.457373272,-0.293778802,1,0,0,1.431,Vrai,0,37,37,37,1,,
,,,,,842187,001,2025-03-31_11h38.47.672,Emotion.Memoire.2024,2024.1.5,MacIntel,19.60784314,,,,,,,,,,,,,,IMAGES_EXP_mp4_40/ANIMEES/10- ANIMEES --NEGATIVES /Video6.mp4,IMAGES_EXP_mp4_40/FIXES/FIX-NEUTRE-mp4/image8.mp4,,,,,,,,,,,,1258.188,1259.42,0.550691244,-0.331797235,1,0,0,1.229,Vrai,0,38,38,38,1,,
,,,,,842187,001,2025-03-31_11h38.47.672,Emotion.Memoire.2024,2024.1.5,MacIntel,19.60784314,,,,,,,,,,,,,,IMAGES_EXP_mp4_40/FIXES/FIX-NEUTRE-mp4/image1.mp4,IMAGES_EXP_mp4_40/ANIMEES/11-ANIMEES --- NEUTRES /video7.mp4,,,,,,,,,,,,1259.42,1260.42,0.532258065,-0.322580645,1,0,0,0.998,Vrai,0,39,39,39,1,,
,,,,,842187,001,2025-03-31_11h38.47.672,Emotion.Memoire.2024,2024.1.5,MacIntel,19.60784314,,,,,,,,,,,,,,IMAGES_EXP_mp4_40/ANIMEES/10- ANIMEES --NEGATIVES /Video1.mp4,DISTRACTEURS-40/DIST.ANIMÉES-20/10.NÉGATIFS/Dist.animee.negatif1.mp4,,,,,,,,,,,,1260.422,1262.52,-0.47235023,-0.30875576,1,0,0,2.039,Faux,0,40,40,40,1,,
,,,,,842187,001,2025-03-31_11h38.47.672,Emotion.Memoire.2024,2024.1.5,MacIntel,19.60784314,,,,,,,,,,,,,,,DISTRACTEURS-40/DIST.FIXES-20/10.NEUTRES /Dist.fix.neutre9.mp4,,,,,,,,,,,,1262.522,1263.853,-0.535714286,-0.304147465,1,0,0,1.314,Faux,0,41,41,41,1,,
,,,,,842187,001,2025-03-31_11h38.47.672,Emotion.Memoire.2024,2024.1.5,MacIntel,19.60784314,,,,,,,,,,,,,,,DISTRACTEURS-40/DIST.FIXES-20/10.NÉGATIFS/Dist.fix.negatif7.mp4,,,,,,,,,,,,1263.854,1264.853,-0.497695853,-0.288018433,1,0,0,0.996,Faux,0,42,42,42,1,,
,,,,,842187,001,2025-03-31_11h38.47.672,Emotion.Memoire.2024,2024.1.5,MacIntel,19.60784314,,,,,,,,,,,,,,,DISTRACTEURS-40/DIST.ANIMÉES-20/10.NEUTRES/Dist.animee.neutre9.mp4,,,,,,,,,,,,1264.854,1265.62,-0.497695853,-0.288018433,1,0,0,0.732,Faux,0,43,43,43,1,,
,,,,,842187,001,2025-03-31_11h38.47.672,Emotion.Memoire.2024,2024.1.5,MacIntel,19.60784314,,,,,,,,,,,,,,,DISTRACTEURS-40/DIST.FIXES-20/10.NÉGATIFS/Dist.fix.negatif1.mp4,,,,,,,,,,,,1265.621,1267.72,-0.497695853,-0.288018433,1,0,0,2.085,Faux,0,44,44,44,1,,
,,,,,842187,001,2025-03-31_11h38.47.672,Emotion.Memoire.2024,2024.1.5,MacIntel,19.60784314,,,,,,,,,,,,,,,DISTRACTEURS-40/DIST.ANIMÉES-20/10.NÉGATIFS/Dist.animee.negatif6.mp4,,,,,,,,,,,,1267.721,1269.22,-0.497695853,-0.288018433,1,0,0,1.478,Faux,0,45,45,45,1,,
,,,,,842187,001,2025-03-31_11h38.47.672,Emotion.Memoire.2024,2024.1.5,MacIntel,19.60784314,,,,,,,,,,,,,,,DISTRACTEURS-40/DIST.ANIMÉES-20/10.NÉGATIFS/Dist.animee.negatif2.mp4,,,,,,,,,,,,1269.221,1270.12,-0.497695853,-0.288018433,1,0,0,0.858,Faux,0,46,46,46,1,,
,,,,,842187,001,2025-03-31_11h38.47.672,Emotion.Memoire.2024,2024.1.5,MacIntel,19.60784314,,,,,,,,,,,,,,,IMAGES_EXP_mp4_40/FIXES/FIX-NEGATIF-mp4/Image4.mp4,,,,,,,,,,,,1270.122,1271.387,0.453917051,-0.322580645,1,0,0,1.262,Vrai,0,47,47,47,1,,
,,,,,842187,001,2025-03-31_11h38.47.672,Emotion.Memoire.2024,2024.1.5,MacIntel,19.60784314,,,,,,,,,,,,,,,IMAGES_EXP_mp4_40/ANIMEES/10- ANIMEES --NEGATIVES /Video7.mp4,,,,,,,,,,,,1271.388,1272.187,0.453917051,-0.322580645,1,0,0,0.797,Vrai,0,48,48,48,1,,
,,,,,842187,001,2025-03-31_11h38.47.672,Emotion.Memoire.2024,2024.1.5,MacIntel,19.60784314,,,,,,,,,,,,,,,IMAGES_EXP_mp4_40/FIXES/FIX-NEUTRE-mp4/image4.mp4,,,,,,,,,,,,1272.188,1273.02,0.453917051,-0.322580645,1,0,0,0.83,Vrai,0,49,49,49,1,,
,,,,,842187,001,2025-03-31_11h38.47.672,Emotion.Memoire.2024,2024.1.5,MacIntel,19.60784314,,,,,,,,,,,,,,,DISTRACTEURS-40/DIST.FIXES-20/10.NÉGATIFS/Dist.fix.negatif5.mp4,,,,,,,,,,,,1273.021,1274.255,-0.480414747,-0.299539171,1,0,0,1.231,Faux,0,50,50,50,1,,
,,,,,842187,001,2025-03-31_11h38.47.672,Emotion.Memoire.2024,2024.1.5,MacIntel,19.60784314,,,,,,,,,,,,,,,DISTRACTEURS-40/DIST.ANIMÉES-20/10.NÉGATIFS/Dist.animee.negatif9.mp4,,,,,,,,,,,,1274.258,1275.421,-0.480414747,-0.299539171,1,0,0,1.149,Faux,0,51,51,51,1,,
,,,,,842187,001,2025-03-31_11h38.47.672,Emotion.Memoire.2024,2024.1.5,MacIntel,19.60784314,,,,,,,,,,,,,,,IMAGES_EXP_mp4_40/ANIMEES/11-ANIMEES --- NEUTRES /video2.mp4,,,,,,,,,,,,1275.423,1276.753,0.501152074,-0.315668203,1,0,0,1.327,Vrai,0,52,52,52,1,,
,,,,,842187,001,2025-03-31_11h38.47.672,Emotion.Memoire.2024,2024.1.5,MacIntel,19.60784314,,,,,,,,,,,,,,,DISTRACTEURS-40/DIST.ANIMÉES-20/10.NEUTRES/Dist.animee.neutre5.mp4,,,,,,,,,,,,1276.755,1278.12,-0.510368664,-0.283410138,1,0,0,1.336,Faux,0,53,53,53,1,,
,,,,,842187,001,2025-03-31_11h38.47.672,Emotion.Memoire.2024,2024.1.5,MacIntel,19.60784314,,,,,,,,,,,,,,,IMAGES_EXP_mp4_40/FIXES/FIX-NEGATIF-mp4/Image7.mp4,,,,,,,,,,,,1278.12,1279.853,0.467741935,-0.279953917,1,0,0,1.731,Vrai,0,54,54,54,1,,
,,,,,842187,001,2025-03-31_11h38.47.672,Emotion.Memoire.2024,2024.1.5,MacIntel,19.60784314,,,,,,,,,,,,,,,IMAGES_EXP_mp4_40/FIXES/FIX-NEGATIF-mp4/Image6.mp4,,,,,,,,,,,,1279.854,1281.153,0.514976959,-0.294930876,1,0,0,1.299,Vrai,0,55,55,55,1,,
,,,,,842187,001,2025-03-31_11h38.47.672,Emotion.Memoire.2024,2024.1.5,MacIntel,19.60784314,,,,,,,,,,,,,,,IMAGES_EXP_mp4_40/FIXES/FIX-NEGATIF-mp4/Image5.mp4,,,,,,,,,,,,1281.155,1282.753,0.486175115,-0.291474654,1,0,0,1.596,Vrai,0,56,56,56,1,,
,,,,,842187,001,2025-03-31_11h38.47.672,Emotion.Memoire.2024,2024.1.5,MacIntel,19.60784314,,,,,,,,,,,,,,,IMAGES_EXP_mp4_40/ANIMEES/11-ANIMEES --- NEUTRES /video10.mp4,,,,,,,,,,,,1282.755,1283.553,0.486175115,-0.291474654,1,0,0,0.796,Vrai,0,57,57,57,1,,
,,,,,842187,001,2025-03-31_11h38.47.672,Emotion.Memoire.2024,2024.1.5,MacIntel,19.60784314,,,,,,,,,,,,,,,DISTRACTEURS-40/DIST.FIXES-20/10.NEUTRES /Dist.fix.neutre4.mp4,,,,,,,,,,,,1283.554,1284.92,-0.447004608,-0.286866359,1,0,0,1.347,Faux,0,58,58,58,1,,
,,,,,842187,001,2025-03-31_11h38.47.672,Emotion.Memoire.2024,2024.1.5,MacIntel,19.60784314,,,,,,,,,,,,,,,IMAGES_EXP_mp4_40/ANIMEES/11-ANIMEES --- NEUTRES /video4.mp4,,,,,,,,,,,,1284.92,1286.353,0.461981567,-0.27764977,1,0,0,1.432,Vrai,0,59,59,59,1,,
,,,,,842187,001,2025-03-31_11h38.47.672,Emotion.Memoire.2024,2024.1.5,MacIntel,19.60784314,,,,,,,,,,,,,,,DISTRACTEURS-40/DIST.FIXES-20/10.NEUTRES /Dist.fix.neutre6.mp4,,,,,,,,,,,,1286.355,1288.453,-0.42281106,-0.263824885,1,0,0,2.093,Faux,0,60,60,60,1,,
,,,,,842187,001,2025-03-31_11h38.47.672,Emotion.Memoire.2024,2024.1.5,MacIntel,19.60784314,,,,,,,,,,,,,,,DISTRACTEURS-40/DIST.FIXES-20/10.NEUTRES /Dist.fix.neutre3.mp4,,,,,,,,,,,,1288.454,1289.486,-0.433179724,-0.269585253,1,0,0,1.025,Faux,0,61,61,61,1,,
,,,,,842187,001,2025-03-31_11h38.47.672,Emotion.Memoire.2024,2024.1.5,MacIntel,19.60784314,,,,,,,,,,,,,,,DISTRACTEURS-40/DIST.FIXES-20/10.NÉGATIFS/Dist.fix.negatif10.mp4,,,,,,,,,,,,1289.487,1291.087,-0.433179724,-0.269585253,1,0,0,1.587,Faux,0,62,62,62,1,,
,,,,,842187,001,2025-03-31_11h38.47.672,Emotion.Memoire.2024,2024.1.5,MacIntel,19.60784314,,,,,,,,,,,,,,,IMAGES_EXP_mp4_40/ANIMEES/10- ANIMEES --NEGATIVES /Video1.mp4,,,,,,,,,,,,1291.088,1292.653,0.486175115,-0.312211982,1,0,0,1.563,Vrai,0,63,63,63,1,,
,,,,,842187,001,2025-03-31_11h38.47.672,Emotion.Memoire.2024,2024.1.5,MacIntel,19.60784314,,,,,,,,,,,,,,,DISTRACTEURS-40/DIST.FIXES-20/10.NÉGATIFS/Dist.fix.negatif9.mp4,,,,,,,,,,,,1292.655,1294.42,-0.457373272,-0.278801843,1,0,0,1.726,Faux,0,64,64,64,1,,
,,,,,842187,001,2025-03-31_11h38.47.672,Emotion.Memoire.2024,2024.1.5,MacIntel,19.60784314,,,,,,,,,,,,,,,DISTRACTEURS-40/DIST.FIXES-20/10.NÉGATIFS/Dist.fix.negatif2.mp4,,,,,,,,,,,,1294.421,1295.42,-0.461981567,-0.276497696,1,0,0,0.992,Faux,0,65,65,65,1,,
,,,,,842187,001,2025-03-31_11h38.47.672,Emotion.Memoire.2024,2024.1.5,MacIntel,19.60784314,,,,,,,,,,,,,,,IMAGES_EXP_mp4_40/FIXES/FIX-NEUTRE-mp4/image10.mp4,,,,,,,,,,,,1295.42,1296.653,0.548387097,-0.290322581,1,0,0,1.232,Vrai,0,66,66,66,1,,
,,,,,842187,001,2025-03-31_11h38.47.672,Emotion.Memoire.2024,2024.1.5,MacIntel,19.60784314,,,,,,,,,,,,,,,IMAGES_EXP_mp4_40/FIXES/FIX-NEGATIF-mp4/Image1.mp4,,,,,,,,,,,,1296.654,1297.42,0.548387097,-0.290322581,1,0,0,0.764,Vrai,0,67,67,67,1,,
,,,,,842187,001,2025-03-31_11h38.47.672,Emotion.Memoire.2024,2024.1.5,MacIntel,19.60784314,,,,,,,,,,,,,,,IMAGES_EXP_mp4_40/ANIMEES/10- ANIMEES --NEGATIVES /Video3.mp4,,,,,,,,,,,,1297.422,1298.52,0.510368664,-0.292626728,1,0,0,1.097,Vrai,0,68,68,68,1,,
,,,,,842187,001,2025-03-31_11h38.47.672,Emotion.Memoire.2024,2024.1.5,MacIntel,19.60784314,,,,,,,,,,,,,,,DISTRACTEURS-40/DIST.FIXES-20/10.NEUTRES /Dist.fix.neutre1.mp4,,,,,,,,,,,,1298.522,1299.72,-0.440092166,-0.338709677,1,0,0,1.159,Faux,0,69,69,69,1,,
,,,,,842187,001,2025-03-31_11h38.47.672,Emotion.Memoire.2024,2024.1.5,MacIntel,19.60784314,,,,,,,,,,,,,,,DISTRACTEURS-40/DIST.FIXES-20/10.NÉGATIFS/Dist.fix.negatif3.mp4,,,,,,,,,,,,1299.722,1300.521,-0.440092166,-0.338709677,1,0,0,0.773,Faux,0,70,70,70,1,,
,,,,,842187,001,2025-03-31_11h38.47.672,Emotion.Memoire.2024,2024.1.5,MacIntel,19.60784314,,,,,,,,,,,,,,,IMAGES_EXP_mp4_40/FIXES/FIX-NEUTRE-mp4/image3.mp4,,,,,,,,,,,,1300.522,1301.72,0.524193548,-0.298387097,1,0,0,1.194,Vrai,0,71,71,71,1,,
,,,,,842187,001,2025-03-31_11h38.47.672,Emotion.Memoire.2024,2024.1.5,MacIntel,19.60784314,,,,,,,,,,,,,,,IMAGES_EXP_mp4_40/FIXES/FIX-NEGATIF-mp4/Image10.mp4,,,,,,,,,,,,1301.72,1302.853,0.491935484,-0.296082949,1,0,0,1.132,Vrai,0,72,72,72,1,,
,,,,,842187,001,2025-03-31_11h38.47.672,Emotion.Memoire.2024,2024.1.5,MacIntel,19.60784314,,,,,,,,,,,,,,,IMAGES_EXP_mp4_40/FIXES/FIX-NEUTRE-mp4/image1.mp4,,,,,,,,,,,,1302.854,1303.72,0.491935484,-0.296082949,1,0,0,0.864,Vrai,0,73,73,73,1,,
,,,,,842187,001,2025-03-31_11h38.47.672,Emotion.Memoire.2024,2024.1.5,MacIntel,19.60784314,,,,,,,,,,,,,,,DISTRACTEURS-40/DIST.ANIMÉES-20/10.NEUTRES/Dist.animee.neutre8.mp4,,,,,,,,,,,,1303.721,1304.954,-0.468894009,-0.315668203,1,0,0,1.204,Faux,0,74,74,74,1,,
,,,,,842187,001,2025-03-31_11h38.47.672,Emotion.Memoire.2024,2024.1.5,MacIntel,19.60784314,,,,,,,,,,,,,,,DISTRACTEURS-40/DIST.FIXES-20/10.NÉGATIFS/Dist.fix.negatif4.mp4,,,,,,,,,,,,1304.957,1306.02,-0.460829493,-0.316820276,1,0,0,1.053,Faux,0,75,75,75,1,,
,,,,,842187,001,2025-03-31_11h38.47.672,Emotion.Memoire.2024,2024.1.5,MacIntel,19.60784314,,,,,,,,,,,,,,,DISTRACTEURS-40/DIST.ANIMÉES-20/10.NÉGATIFS/Dist.animee.negatif3.mp4,,,,,,,,,,,,1306.021,1306.886,-0.460829493,-0.316820276,1,0,0,0.825,Faux,0,76,76,76,1,,
,,,,,842187,001,2025-03-31_11h38.47.672,Emotion.Memoire.2024,2024.1.5,MacIntel,19.60784314,,,,,,,,,,,,,,,DISTRACTEURS-40/DIST.ANIMÉES-20/10.NEUTRES/Dist.animee.neutre2.mp4,,,,,,,,,,,,1306.888,1307.72,-0.460829493,-0.316820276,1,0,0,0.797,Faux,0,77,77,77,1,,
,,,,,842187,001,2025-03-31_11h38.47.672,Emotion.Memoire.2024,2024.1.5,MacIntel,19.60784314,,,,,,,,,,,,,,,IMAGES_EXP_mp4_40/ANIMEES/10- ANIMEES --NEGATIVES /Video9.mp4,,,,,,,,,,,,1307.721,1309.12,0.5,-0.305299539,1,0,0,1.397,Vrai,0,78,78,78,1,,
,,,,,842187,001,2025-03-31_11h38.47.672,Emotion.Memoire.2024,2024.1.5,MacIntel,19.60784314,,,,,,,,,,,,,,,DISTRACTEURS-40/DIST.ANIMÉES-20/10.NEUTRES/Dist.animee.neutre7.mp4,,,,,,,,,,,,1309.122,1310.486,-0.520737327,-0.311059908,1,0,0,1.329,Faux,0,79,79,79,1,,
,,,,,842187,001,2025-03-31_11h38.47.672,Emotion.Memoire.2024,2024.1.5,MacIntel,19.60784314,,,,,,,,,,,,,,,,,,,,,,,,,,,,,,,,,,,,,,,,,1310.488,1329.253
