Consigne.started,Consigne.stopped,Key_resp1.keys,Key_resp1.rt,Key_resp1.duration,participant,session,date,expName,psychopyVersion,OS,frameRate,IMAGES.started,IMAGES.stopped,SAM.started,SAM.stopped,Plaisir.response,Plaisir.rt,EVEIL.response,EVEIL.rt,trials.thisRepN,trials.thisTrialN,trials.thisN,trials.thisIndex,trials.ran,ImageFile,ImagesDistracteursFile,Test,Calcul.started,Calcul.stopped,Key_response.keys,Key_response.rt,Key_response.duration,Consigne_reco.started,Consigne_reco.stopped,key_resp_reconn.keys,key_resp_reconn.rt,key_resp_reconn.duration,DISTRACTEURS.started,DISTRACTEURS.stopped,mouse.x,mouse.y,mouse.leftButton,mouse.midButton,mouse.rightButton,mouse.time,mouse.clicked_name,trials_2.thisRepN,trials_2.thisTrialN,trials_2.thisN,trials_2.thisIndex,trials_2.ran,MERCI.started,MERCI.stopped
0.0003,5573.4471,space,5572.2215,,974490,001,2025-03-25_11h48.28.273,Emotion.Memoire.2024,2024.1.5,Win32,2.608242045,,,,,,,,,,,,,,,,,,,,,,,,,,,,,,,,,,,,,,,,,,
,,,,,974490,001,2025-03-25_11h48.28.273,Emotion.Memoire.2024,2024.1.5,Win32,2.608242045,5573.459,5583.4623,5583.4634,5604.0289,5,10.5445,3,20.5604,0,0,0,0,1,IMAGES_EXP_mp4_40/FIXES/FIX-NEGATIF-mp4/Image6.mp4,DISTRACTEURS-40/DIST.ANIMÉES-20/10.NÉGATIFS/Dist.animee.negatif10.mp4,IMAGES_EXP_mp4_40/ANIMEES/10- ANIMEES --NEGATIVES /Video1.mp4,,,,,,,,,,,,,,,,,,,,,,,,,,
,,,,,974490,001,2025-03-25_11h48.28.273,Emotion.Memoire.2024,2024.1.5,Win32,2.608242045,5604.0296,5614.0288,5614.0295,5636.0784,5,17.2746,1,22.0388,0,1,1,1,1,IMAGES_EXP_mp4_40/FIXES/FIX-NEUTRE-mp4/image9.mp4,DISTRACTEURS-40/DIST.ANIMÉES-20/10.NEUTRES/Dist.animee.neutre3.mp4,DISTRACTEURS-40/DIST.FIXES-20/10.NÉGATIFS/Dist.fix.negatif3.mp4,,,,,,,,,,,,,,,,,,,,,,,,,,
,,,,,974490,001,2025-03-25_11h48.28.273,Emotion.Memoire.2024,2024.1.5,Win32,2.608242045,5636.0791,5646.0783,5646.0786,5665.7784,2,8.1447,3,19.689,0,2,2,2,1,IMAGES_EXP_mp4_40/FIXES/FIX-NEGATIF-mp4/Image3.mp4,IMAGES_EXP_mp4_40/ANIMEES/10- ANIMEES --NEGATIVES /Video2.mp4,DISTRACTEURS-40/DIST.FIXES-20/10.NÉGATIFS/Dist.fix.negatif5.mp4,,,,,,,,,,,,,,,,,,,,,,,,,,
,,,,,974490,001,2025-03-25_11h48.28.273,Emotion.Memoire.2024,2024.1.5,Win32,2.608242045,5665.7793,5675.7789,5675.7798,5681.945,5,2.5957,3,6.1631,0,3,3,3,1,IMAGES_EXP_mp4_40/FIXES/FIX-NEGATIF-mp4/Image4.mp4,IMAGES_EXP_mp4_40/FIXES/FIX-NEUTRE-mp4/image6.mp4,,,,,,,,,,,,,,,,,,,,,,,,,,,
,,,,,974490,001,2025-03-25_11h48.28.273,Emotion.Memoire.2024,2024.1.5,Win32,2.608242045,5681.9457,5691.9451,5691.9455,5701.3785,3,6.4782,3,9.4225,0,4,4,4,1,IMAGES_EXP_mp4_40/FIXES/FIX-NEGATIF-mp4/Image10.mp4,IMAGES_EXP_mp4_40/FIXES/FIX-NEUTRE-mp4/image2.mp4,,,,,,,,,,,,,,,,,,,,,,,,,,,
,,,,,974490,001,2025-03-25_11h48.28.273,Emotion.Memoire.2024,2024.1.5,Win32,2.608242045,5701.3793,5711.3813,5711.3825,5716.5456,7,2.8011,5,5.1614,0,5,5,5,1,IMAGES_EXP_mp4_40/ANIMEES/11-ANIMEES --- NEUTRES /video10.mp4,DISTRACTEURS-40/DIST.FIXES-20/10.NEUTRES /Dist.fix.neutre7.mp4,,,,,,,,,,,,,,,,,,,,,,,,,,,
,,,,,974490,001,2025-03-25_11h48.28.273,Emotion.Memoire.2024,2024.1.5,Win32,2.608242045,5716.5461,5726.545,5726.5456,5733.8617,1,5.5582,1,7.3101,0,6,6,6,1,IMAGES_EXP_mp4_40/ANIMEES/10- ANIMEES --NEGATIVES /Video4.mp4,DISTRACTEURS-40/DIST.ANIMÉES-20/10.NÉGATIFS/Dist.animee.negatif4.mp4,,,,,,,,,,,,,,,,,,,,,,,,,,,
,,,,,974490,001,2025-03-25_11h48.28.273,Emotion.Memoire.2024,2024.1.5,Win32,2.608242045,5733.8625,5743.8618,5743.8624,5752.2951,8,5.8055,3,8.4217,0,7,7,7,1,IMAGES_EXP_mp4_40/FIXES/FIX-NEUTRE-mp4/image10.mp4,IMAGES_EXP_mp4_40/FIXES/FIX-NEGATIF-mp4/Image2.mp4,,,,,,,,,,,,,,,,,,,,,,,,,,,
,,,,,974490,001,2025-03-25_11h48.28.273,Emotion.Memoire.2024,2024.1.5,Win32,2.608242045,5752.2956,5762.2784,5762.279,5766.0617,1,1.9676,7,3.7762,0,8,8,8,1,IMAGES_EXP_mp4_40/ANIMEES/10- ANIMEES --NEGATIVES /Video1.mp4,IMAGES_EXP_mp4_40/FIXES/FIX-NEGATIF-mp4/Image9.mp4,,,,,,,,,,,,,,,,,,,,,,,,,,,
,,,,,974490,001,2025-03-25_11h48.28.273,Emotion.Memoire.2024,2024.1.5,Win32,2.608242045,5766.0625,5776.062,5776.0626,5780.7616,1,3.3606,7,4.6886,0,9,9,9,1,IMAGES_EXP_mp4_40/FIXES/FIX-NEUTRE-mp4/image4.mp4,DISTRACTEURS-40/DIST.FIXES-20/10.NEUTRES /Dist.fix.neutre8.mp4,,,,,,,,,,,,,,,,,,,,,,,,,,,
,,,,,974490,001,2025-03-25_11h48.28.273,Emotion.Memoire.2024,2024.1.5,Win32,2.608242045,5780.7622,5790.7612,5790.7617,5796.5117,7,4.0718,3,5.7397,0,10,10,10,1,IMAGES_EXP_mp4_40/ANIMEES/11-ANIMEES --- NEUTRES /video6.mp4,DISTRACTEURS-40/DIST.ANIMÉES-20/10.NÉGATIFS/Dist.animee.negatif8.mp4,,,,,,,,,,,,,,,,,,,,,,,,,,,
,,,,,974490,001,2025-03-25_11h48.28.273,Emotion.Memoire.2024,2024.1.5,Win32,2.608242045,5796.5124,5806.5125,5806.513,5811.1453,5,2.1064,1,4.6221,0,11,11,11,1,IMAGES_EXP_mp4_40/ANIMEES/11-ANIMEES --- NEUTRES /video9.mp4,IMAGES_EXP_mp4_40/ANIMEES/11-ANIMEES --- NEUTRES /video8.mp4,,,,,,,,,,,,,,,,,,,,,,,,,,,
,,,,,974490,001,2025-03-25_11h48.28.273,Emotion.Memoire.2024,2024.1.5,Win32,2.608242045,5811.1458,5821.1452,5821.1458,5824.4287,5,2.0625,3,3.2735,0,12,12,12,1,IMAGES_EXP_mp4_40/FIXES/FIX-NEUTRE-mp4/image8.mp4,IMAGES_EXP_mp4_40/ANIMEES/10- ANIMEES --NEGATIVES /Video8.mp4,,,,,,,,,,,,,,,,,,,,,,,,,,,
,,,,,974490,001,2025-03-25_11h48.28.273,Emotion.Memoire.2024,2024.1.5,Win32,2.608242045,5824.429,5834.4283,5834.4286,5839.9454,4,2.6116,4,5.5155,0,13,13,13,1,IMAGES_EXP_mp4_40/ANIMEES/11-ANIMEES --- NEUTRES /video5.mp4,DISTRACTEURS-40/DIST.FIXES-20/10.NÉGATIFS/Dist.fix.negatif8.mp4,,,,,,,,,,,,,,,,,,,,,,,,,,,
,,,,,974490,001,2025-03-25_11h48.28.273,Emotion.Memoire.2024,2024.1.5,Win32,2.608242045,5839.9458,5849.945,5849.9453,5854.0285,5,2.2743,1,4.0789,0,14,14,14,1,IMAGES_EXP_mp4_40/ANIMEES/11-ANIMEES --- NEUTRES /video1.mp4,DISTRACTEURS-40/DIST.FIXES-20/10.NEUTRES /Dist.fix.neutre2.mp4,,,,,,,,,,,,,,,,,,,,,,,,,,,
,,,,,974490,001,2025-03-25_11h48.28.273,Emotion.Memoire.2024,2024.1.5,Win32,2.608242045,5854.0289,5863.2954,5863.2958,5869.4118,2,3.5226,5,6.1116,0,15,15,15,1,IMAGES_EXP_mp4_40/ANIMEES/10- ANIMEES --NEGATIVES /Video9.mp4,DISTRACTEURS-40/DIST.ANIMÉES-20/10.NEUTRES/Dist.animee.neutre10.mp4,,,,,,,,,,,,,,,,,,,,,,,,,,,
,,,,,974490,001,2025-03-25_11h48.28.273,Emotion.Memoire.2024,2024.1.5,Win32,2.608242045,5869.4125,5878.2619,5878.2621,5883.8284,1,2.7618,5,5.5558,0,16,16,16,1,IMAGES_EXP_mp4_40/ANIMEES/10- ANIMEES --NEGATIVES /Video8.mp4,DISTRACTEURS-40/DIST.FIXES-20/10.NEUTRES /Dist.fix.neutre5.mp4,,,,,,,,,,,,,,,,,,,,,,,,,,,
,,,,,974490,001,2025-03-25_11h48.28.273,Emotion.Memoire.2024,2024.1.5,Win32,2.608242045,5883.8289,5893.8286,5893.8296,5896.9119,1,1.826,7,3.0709,0,17,17,17,1,IMAGES_EXP_mp4_40/FIXES/FIX-NEGATIF-mp4/Image5.mp4,DISTRACTEURS-40/DIST.ANIMÉES-20/10.NEUTRES/Dist.animee.neutre1.mp4,,,,,,,,,,,,,,,,,,,,,,,,,,,
,,,,,974490,001,2025-03-25_11h48.28.273,Emotion.Memoire.2024,2024.1.5,Win32,2.608242045,5896.9124,5906.9117,5906.9119,5911.3446,8,1.992,5,4.4233,0,18,18,18,1,IMAGES_EXP_mp4_40/ANIMEES/11-ANIMEES --- NEUTRES /video2.mp4,IMAGES_EXP_mp4_40/FIXES/FIX-NEUTRE-mp4/image5.mp4,,,,,,,,,,,,,,,,,,,,,,,,,,,
,,,,,974490,001,2025-03-25_11h48.28.273,Emotion.Memoire.2024,2024.1.5,Win32,2.608242045,5911.345,5921.3343,5921.3344,5924.395,1,1.6734,7,3.0506,0,19,19,19,1,IMAGES_EXP_mp4_40/ANIMEES/10- ANIMEES --NEGATIVES /Video7.mp4,IMAGES_EXP_mp4_40/FIXES/FIX-NEUTRE-mp4/image7.mp4,,,,,,,,,,,,,,,,,,,,,,,,,,,
,,,,,974490,001,2025-03-25_11h48.28.273,Emotion.Memoire.2024,2024.1.5,Win32,2.608242045,5924.3959,5934.3951,5934.3954,5937.8785,5,1.7412,1,3.4719,0,20,20,20,1,IMAGES_EXP_mp4_40/FIXES/FIX-NEUTRE-mp4/image5.mp4,IMAGES_EXP_mp4_40/ANIMEES/10- ANIMEES --NEGATIVES /Video10.mp4,,,,,,,,,,,,,,,,,,,,,,,,,,,
,,,,,974490,001,2025-03-25_11h48.28.273,Emotion.Memoire.2024,2024.1.5,Win32,2.608242045,5937.8789,5947.8783,5947.8789,5953.8617,6,4.0247,3,5.976,0,21,21,21,1,IMAGES_EXP_mp4_40/ANIMEES/11-ANIMEES --- NEUTRES /video3.mp4,IMAGES_EXP_mp4_40/ANIMEES/10- ANIMEES --NEGATIVES /Video4.mp4,,,,,,,,,,,,,,,,,,,,,,,,,,,
,,,,,974490,001,2025-03-25_11h48.28.273,Emotion.Memoire.2024,2024.1.5,Win32,2.608242045,5953.8624,5963.862,5963.8627,5968.7783,5,2.2413,3,4.9048,0,22,22,22,1,IMAGES_EXP_mp4_40/ANIMEES/10- ANIMEES --NEGATIVES /Video5.mp4,IMAGES_EXP_mp4_40/ANIMEES/10- ANIMEES --NEGATIVES /Video5.mp4,,,,,,,,,,,,,,,,,,,,,,,,,,,
,,,,,974490,001,2025-03-25_11h48.28.273,Emotion.Memoire.2024,2024.1.5,Win32,2.608242045,5968.7788,5978.7787,5978.7796,5982.6616,5,2.22,1,3.8717,0,23,23,23,1,IMAGES_EXP_mp4_40/ANIMEES/11-ANIMEES --- NEUTRES /video7.mp4,IMAGES_EXP_mp4_40/ANIMEES/11-ANIMEES --- NEUTRES /video6.mp4,,,,,,,,,,,,,,,,,,,,,,,,,,,
,,,,,974490,001,2025-03-25_11h48.28.273,Emotion.Memoire.2024,2024.1.5,Win32,2.608242045,5982.6621,5992.6619,5992.6624,5996.6447,5,1.8415,4,3.9769,0,24,24,24,1,IMAGES_EXP_mp4_40/FIXES/FIX-NEGATIF-mp4/Image8.mp4,IMAGES_EXP_mp4_40/ANIMEES/11-ANIMEES --- NEUTRES /video5.mp4,,,,,,,,,,,,,,,,,,,,,,,,,,,
,,,,,974490,001,2025-03-25_11h48.28.273,Emotion.Memoire.2024,2024.1.5,Win32,2.608242045,5996.6453,6006.645,6006.6457,6011.8117,1,1.93,7,5.1612,0,25,25,25,1,IMAGES_EXP_mp4_40/FIXES/FIX-NEGATIF-mp4/Image2.mp4,DISTRACTEURS-40/DIST.ANIMÉES-20/10.NÉGATIFS/Dist.animee.negatif5.mp4,,,,,,,,,,,,,,,,,,,,,,,,,,,
,,,,,974490,001,2025-03-25_11h48.28.273,Emotion.Memoire.2024,2024.1.5,Win32,2.608242045,6011.8122,6021.8118,6021.8124,6026.0781,5,2.2193,5,4.2586,0,26,26,26,1,IMAGES_EXP_mp4_40/FIXES/FIX-NEUTRE-mp4/image7.mp4,DISTRACTEURS-40/DIST.ANIMÉES-20/10.NEUTRES/Dist.animee.neutre4.mp4,,,,,,,,,,,,,,,,,,,,,,,,,,,
,,,,,974490,001,2025-03-25_11h48.28.273,Emotion.Memoire.2024,2024.1.5,Win32,2.608242045,6026.0787,6036.0782,6036.0786,6041.4114,5,3.1929,6,5.3214,0,27,27,27,1,IMAGES_EXP_mp4_40/ANIMEES/11-ANIMEES --- NEUTRES /video4.mp4,DISTRACTEURS-40/DIST.FIXES-20/10.NEUTRES /Dist.fix.neutre10.mp4,,,,,,,,,,,,,,,,,,,,,,,,,,,
,,,,,974490,001,2025-03-25_11h48.28.273,Emotion.Memoire.2024,2024.1.5,Win32,2.608242045,6041.4119,6052.4865,6052.4867,6058.9947,3,5.1369,5,6.4981,0,28,28,28,1,IMAGES_EXP_mp4_40/FIXES/FIX-NEGATIF-mp4/Image1.mp4,IMAGES_EXP_mp4_40/FIXES/FIX-NEGATIF-mp4/Image3.mp4,,,,,,,,,,,,,,,,,,,,,,,,,,,
,,,,,974490,001,2025-03-25_11h48.28.273,Emotion.Memoire.2024,2024.1.5,Win32,2.608242045,6058.9951,6068.9948,6068.9951,6074.9114,4,3.5643,2,5.9081,0,29,29,29,1,IMAGES_EXP_mp4_40/ANIMEES/10- ANIMEES --NEGATIVES /Video10.mp4,DISTRACTEURS-40/DIST.FIXES-20/10.NÉGATIFS/Dist.fix.negatif6.mp4,,,,,,,,,,,,,,,,,,,,,,,,,,,
,,,,,974490,001,2025-03-25_11h48.28.273,Emotion.Memoire.2024,2024.1.5,Win32,2.608242045,6074.9119,6084.9113,6084.9114,6090.7114,5,1.7441,3,5.7918,0,30,30,30,1,IMAGES_EXP_mp4_40/ANIMEES/11-ANIMEES --- NEUTRES /video8.mp4,IMAGES_EXP_mp4_40/ANIMEES/11-ANIMEES --- NEUTRES /video1.mp4,,,,,,,,,,,,,,,,,,,,,,,,,,,
,,,,,974490,001,2025-03-25_11h48.28.273,Emotion.Memoire.2024,2024.1.5,Win32,2.608242045,6090.7117,6100.7114,6100.7115,6106.8781,6,3.7757,3,6.1559,0,31,31,31,1,IMAGES_EXP_mp4_40/FIXES/FIX-NEUTRE-mp4/image6.mp4,IMAGES_EXP_mp4_40/FIXES/FIX-NEUTRE-mp4/image9.mp4,,,,,,,,,,,,,,,,,,,,,,,,,,,
,,,,,974490,001,2025-03-25_11h48.28.273,Emotion.Memoire.2024,2024.1.5,Win32,2.608242045,6106.8786,6116.8779,6116.8783,6121.5286,4,3.2061,5,4.649,0,32,32,32,1,IMAGES_EXP_mp4_40/ANIMEES/10- ANIMEES --NEGATIVES /Video2.mp4,IMAGES_EXP_mp4_40/ANIMEES/10- ANIMEES --NEGATIVES /Video6.mp4,,,,,,,,,,,,,,,,,,,,,,,,,,,
,,,,,974490,001,2025-03-25_11h48.28.273,Emotion.Memoire.2024,2024.1.5,Win32,2.608242045,6121.529,6131.5304,6131.5306,6136.3284,4,2.3895,3,4.789,0,33,33,33,1,IMAGES_EXP_mp4_40/ANIMEES/10- ANIMEES --NEGATIVES /Video3.mp4,IMAGES_EXP_mp4_40/ANIMEES/11-ANIMEES --- NEUTRES /video3.mp4,,,,,,,,,,,,,,,,,,,,,,,,,,,
,,,,,974490,001,2025-03-25_11h48.28.273,Emotion.Memoire.2024,2024.1.5,Win32,2.608242045,6136.3288,6146.3282,6146.3287,6150.0114,7,2.2786,7,3.6786,0,34,34,34,1,IMAGES_EXP_mp4_40/FIXES/FIX-NEUTRE-mp4/image2.mp4,DISTRACTEURS-40/DIST.ANIMÉES-20/10.NÉGATIFS/Dist.animee.negatif7.mp4,,,,,,,,,,,,,,,,,,,,,,,,,,,
,,,,,974490,001,2025-03-25_11h48.28.273,Emotion.Memoire.2024,2024.1.5,Win32,2.608242045,6150.0121,6160.0149,6160.0154,6162.6952,6,1.7443,7,2.6717,0,35,35,35,1,IMAGES_EXP_mp4_40/FIXES/FIX-NEUTRE-mp4/image3.mp4,IMAGES_EXP_mp4_40/ANIMEES/11-ANIMEES --- NEUTRES /video9.mp4,,,,,,,,,,,,,,,,,,,,,,,,,,,
,,,,,974490,001,2025-03-25_11h48.28.273,Emotion.Memoire.2024,2024.1.5,Win32,2.608242045,6162.6956,6172.6741,6172.6745,6177.5451,5,2.126,1,4.8697,0,36,36,36,1,IMAGES_EXP_mp4_40/FIXES/FIX-NEGATIF-mp4/Image9.mp4,DISTRACTEURS-40/DIST.ANIMÉES-20/10.NEUTRES/Dist.animee.neutre6.mp4,,,,,,,,,,,,,,,,,,,,,,,,,,,
,,,,,974490,001,2025-03-25_11h48.28.273,Emotion.Memoire.2024,2024.1.5,Win32,2.608242045,6177.5456,6187.4909,6187.4917,6191.6948,5,1.9163,3,4.1935,0,37,37,37,1,IMAGES_EXP_mp4_40/FIXES/FIX-NEGATIF-mp4/Image7.mp4,IMAGES_EXP_mp4_40/FIXES/FIX-NEGATIF-mp4/Image8.mp4,,,,,,,,,,,,,,,,,,,,,,,,,,,
,,,,,974490,001,2025-03-25_11h48.28.273,Emotion.Memoire.2024,2024.1.5,Win32,2.608242045,6191.6954,6201.6951,6201.6958,6204.4785,1,1.358,7,2.7749,0,38,38,38,1,IMAGES_EXP_mp4_40/ANIMEES/10- ANIMEES --NEGATIVES /Video6.mp4,IMAGES_EXP_mp4_40/FIXES/FIX-NEUTRE-mp4/image8.mp4,,,,,,,,,,,,,,,,,,,,,,,,,,,
,,,,,974490,001,2025-03-25_11h48.28.273,Emotion.Memoire.2024,2024.1.5,Win32,2.608242045,6204.4791,6214.4784,6214.4788,6218.4449,1,1.9768,9,3.9609,0,39,39,39,1,IMAGES_EXP_mp4_40/FIXES/FIX-NEUTRE-mp4/image1.mp4,IMAGES_EXP_mp4_40/ANIMEES/11-ANIMEES --- NEUTRES /video7.mp4,,,,,,,,,,,,,,,,,,,,,,,,,,,
,,,,,974490,001,2025-03-25_11h48.28.273,Emotion.Memoire.2024,2024.1.5,Win32,2.608242045,,,,,,,,,,,,,,,,,6218.4457,6321.0799,space,102.6086,,,,,,,,,,,,,,,,,,,,,,
,,,,,974490,001,2025-03-25_11h48.28.273,Emotion.Memoire.2024,2024.1.5,Win32,2.608242045,,,,,,,,,,,,,,,,,,,,,,6321.0804,6350.3959,space,29.18,,,,,,,,,,,,,,,,,
,,,,,974490,001,2025-03-25_11h48.28.273,Emotion.Memoire.2024,2024.1.5,Win32,2.608242045,,,,,,,,,,,,,,IMAGES_EXP_mp4_40/FIXES/FIX-NEGATIF-mp4/Image6.mp4,DISTRACTEURS-40/DIST.ANIMÉES-20/10.NÉGATIFS/Dist.animee.negatif10.mp4,IMAGES_EXP_mp4_40/ANIMEES/10- ANIMEES --NEGATIVES /Video1.mp4,,,,,,,,,,,6350.4063,6353.4455,-0.519042437,-0.313928183,1,0,0,3.0354,Faux,0,0,0,0,1,,
,,,,,974490,001,2025-03-25_11h48.28.273,Emotion.Memoire.2024,2024.1.5,Win32,2.608242045,,,,,,,,,,,,,,IMAGES_EXP_mp4_40/FIXES/FIX-NEUTRE-mp4/image9.mp4,DISTRACTEURS-40/DIST.ANIMÉES-20/10.NEUTRES/Dist.animee.neutre3.mp4,DISTRACTEURS-40/DIST.FIXES-20/10.NÉGATIFS/Dist.fix.negatif3.mp4,,,,,,,,,,,6353.446,6356.8289,-0.519042437,-0.313928183,1,0,0,3.3816,Faux,0,1,1,1,1,,
,,,,,974490,001,2025-03-25_11h48.28.273,Emotion.Memoire.2024,2024.1.5,Win32,2.608242045,,,,,,,,,,,,,,IMAGES_EXP_mp4_40/FIXES/FIX-NEGATIF-mp4/Image3.mp4,IMAGES_EXP_mp4_40/ANIMEES/10- ANIMEES --NEGATIVES /Video2.mp4,DISTRACTEURS-40/DIST.FIXES-20/10.NÉGATIFS/Dist.fix.negatif5.mp4,,,,,,,,,,,6356.8309,6358.4614,0.475516866,-0.289989119,1,0,0,1.6286,Vrai,0,2,2,2,1,,
,,,,,974490,001,2025-03-25_11h48.28.273,Emotion.Memoire.2024,2024.1.5,Win32,2.608242045,,,,,,,,,,,,,,IMAGES_EXP_mp4_40/FIXES/FIX-NEGATIF-mp4/Image4.mp4,IMAGES_EXP_mp4_40/FIXES/FIX-NEUTRE-mp4/image6.mp4,,,,,,,,,,,,6358.4621,6359.4675,0.475516866,-0.289989119,1,0,0,1.0044,Vrai,0,3,3,3,1,,
,,,,,974490,001,2025-03-25_11h48.28.273,Emotion.Memoire.2024,2024.1.5,Win32,2.608242045,,,,,,,,,,,,,,IMAGES_EXP_mp4_40/FIXES/FIX-NEGATIF-mp4/Image10.mp4,IMAGES_EXP_mp4_40/FIXES/FIX-NEUTRE-mp4/image2.mp4,,,,,,,,,,,,6359.4681,6360.262,0.475516866,-0.289989119,1,0,0,0.7929,Vrai,0,4,4,4,1,,
,,,,,974490,001,2025-03-25_11h48.28.273,Emotion.Memoire.2024,2024.1.5,Win32,2.608242045,,,,,,,,,,,,,,IMAGES_EXP_mp4_40/ANIMEES/11-ANIMEES --- NEUTRES /video10.mp4,DISTRACTEURS-40/DIST.FIXES-20/10.NEUTRES /Dist.fix.neutre7.mp4,,,,,,,,,,,,6360.2631,6361.8768,-0.511425462,-0.322633297,1,0,0,1.6121,Faux,0,5,5,5,1,,
,,,,,974490,001,2025-03-25_11h48.28.273,Emotion.Memoire.2024,2024.1.5,Win32,2.608242045,,,,,,,,,,,,,,IMAGES_EXP_mp4_40/ANIMEES/10- ANIMEES --NEGATIVES /Video4.mp4,DISTRACTEURS-40/DIST.ANIMÉES-20/10.NÉGATIFS/Dist.animee.negatif4.mp4,,,,,,,,,,,,6361.8772,6362.7115,-0.511425462,-0.322633297,1,0,0,0.833,Faux,0,6,6,6,1,,
,,,,,974490,001,2025-03-25_11h48.28.273,Emotion.Memoire.2024,2024.1.5,Win32,2.608242045,,,,,,,,,,,,,,IMAGES_EXP_mp4_40/FIXES/FIX-NEUTRE-mp4/image10.mp4,IMAGES_EXP_mp4_40/FIXES/FIX-NEGATIF-mp4/Image2.mp4,,,,,,,,,,,,6362.7126,6363.8455,0.540805223,-0.282372144,1,0,0,1.1302,Vrai,0,7,7,7,1,,
,,,,,974490,001,2025-03-25_11h48.28.273,Emotion.Memoire.2024,2024.1.5,Win32,2.608242045,,,,,,,,,,,,,,IMAGES_EXP_mp4_40/ANIMEES/10- ANIMEES --NEGATIVES /Video1.mp4,IMAGES_EXP_mp4_40/FIXES/FIX-NEGATIF-mp4/Image9.mp4,,,,,,,,,,,,6363.8465,6365.1628,0.50054407,-0.300870511,1,0,0,1.3138,Vrai,0,8,8,8,1,,
,,,,,974490,001,2025-03-25_11h48.28.273,Emotion.Memoire.2024,2024.1.5,Win32,2.608242045,,,,,,,,,,,,,,IMAGES_EXP_mp4_40/FIXES/FIX-NEUTRE-mp4/image4.mp4,DISTRACTEURS-40/DIST.FIXES-20/10.NEUTRES /Dist.fix.neutre8.mp4,,,,,,,,,,,,6365.164,6366.6387,-0.532100109,-0.281284004,1,0,0,1.472,Faux,0,9,9,9,1,,
,,,,,974490,001,2025-03-25_11h48.28.273,Emotion.Memoire.2024,2024.1.5,Win32,2.608242045,,,,,,,,,,,,,,IMAGES_EXP_mp4_40/ANIMEES/11-ANIMEES --- NEUTRES /video6.mp4,DISTRACTEURS-40/DIST.ANIMÉES-20/10.NÉGATIFS/Dist.animee.negatif8.mp4,,,,,,,,,,,,6366.6401,6367.478,-0.532100109,-0.281284004,1,0,0,0.8339,Faux,0,10,10,10,1,,
,,,,,974490,001,2025-03-25_11h48.28.273,Emotion.Memoire.2024,2024.1.5,Win32,2.608242045,,,,,,,,,,,,,,IMAGES_EXP_mp4_40/ANIMEES/11-ANIMEES --- NEUTRES /video9.mp4,IMAGES_EXP_mp4_40/ANIMEES/11-ANIMEES --- NEUTRES /video8.mp4,,,,,,,,,,,,6367.4787,6368.5281,0.487486398,-0.270402612,1,0,0,1.0481,Vrai,0,11,11,11,1,,
,,,,,974490,001,2025-03-25_11h48.28.273,Emotion.Memoire.2024,2024.1.5,Win32,2.608242045,,,,,,,,,,,,,,IMAGES_EXP_mp4_40/FIXES/FIX-NEUTRE-mp4/image8.mp4,IMAGES_EXP_mp4_40/ANIMEES/10- ANIMEES --NEGATIVES /Video8.mp4,,,,,,,,,,,,6368.5287,6369.478,0.503808487,-0.274755169,1,0,0,0.9477,Vrai,0,12,12,12,1,,
,,,,,974490,001,2025-03-25_11h48.28.273,Emotion.Memoire.2024,2024.1.5,Win32,2.608242045,,,,,,,,,,,,,,IMAGES_EXP_mp4_40/ANIMEES/11-ANIMEES --- NEUTRES /video5.mp4,DISTRACTEURS-40/DIST.FIXES-20/10.NÉGATIFS/Dist.fix.negatif8.mp4,,,,,,,,,,,,6369.4784,6370.8612,-0.489662677,-0.285636561,1,0,0,1.3816,Faux,0,13,13,13,1,,
,,,,,974490,001,2025-03-25_11h48.28.273,Emotion.Memoire.2024,2024.1.5,Win32,2.608242045,,,,,,,,,,,,,,IMAGES_EXP_mp4_40/ANIMEES/11-ANIMEES --- NEUTRES /video1.mp4,DISTRACTEURS-40/DIST.FIXES-20/10.NEUTRES /Dist.fix.neutre2.mp4,,,,,,,,,,,,6370.8616,6372.3682,-0.495103373,-0.289989119,1,0,0,1.5056,Faux,0,14,14,14,1,,
,,,,,974490,001,2025-03-25_11h48.28.273,Emotion.Memoire.2024,2024.1.5,Win32,2.608242045,,,,,,,,,,,,,,IMAGES_EXP_mp4_40/ANIMEES/10- ANIMEES --NEGATIVES /Video9.mp4,DISTRACTEURS-40/DIST.ANIMÉES-20/10.NEUTRES/Dist.animee.neutre10.mp4,,,,,,,,,,,,6372.3688,6373.0288,-0.495103373,-0.289989119,1,0,0,0.6577,Faux,0,15,15,15,1,,
,,,,,974490,001,2025-03-25_11h48.28.273,Emotion.Memoire.2024,2024.1.5,Win32,2.608242045,,,,,,,,,,,,,,IMAGES_EXP_mp4_40/ANIMEES/10- ANIMEES --NEGATIVES /Video8.mp4,DISTRACTEURS-40/DIST.FIXES-20/10.NEUTRES /Dist.fix.neutre5.mp4,,,,,,,,,,,,6373.0303,6375.9199,-0.495103373,-0.289989119,1,0,0,2.8853,Faux,0,16,16,16,1,,
,,,,,974490,001,2025-03-25_11h48.28.273,Emotion.Memoire.2024,2024.1.5,Win32,2.608242045,,,,,,,,,,,,,,IMAGES_EXP_mp4_40/FIXES/FIX-NEGATIF-mp4/Image5.mp4,DISTRACTEURS-40/DIST.ANIMÉES-20/10.NEUTRES/Dist.animee.neutre1.mp4,,,,,,,,,,,,6375.9226,6376.6612,-0.495103373,-0.289989119,1,0,0,0.734,Faux,0,17,17,17,1,,
,,,,,974490,001,2025-03-25_11h48.28.273,Emotion.Memoire.2024,2024.1.5,Win32,2.608242045,,,,,,,,,,,,,,IMAGES_EXP_mp4_40/ANIMEES/11-ANIMEES --- NEUTRES /video2.mp4,IMAGES_EXP_mp4_40/FIXES/FIX-NEUTRE-mp4/image5.mp4,,,,,,,,,,,,6376.6621,6378.2791,0.47007617,-0.293253536,1,0,0,1.6151,Vrai,0,18,18,18,1,,
,,,,,974490,001,2025-03-25_11h48.28.273,Emotion.Memoire.2024,2024.1.5,Win32,2.608242045,,,,,,,,,,,,,,IMAGES_EXP_mp4_40/ANIMEES/10- ANIMEES --NEGATIVES /Video7.mp4,IMAGES_EXP_mp4_40/FIXES/FIX-NEUTRE-mp4/image7.mp4,,,,,,,,,,,,6378.2797,6379.512,0.496191513,-0.309575626,1,0,0,1.2299,Vrai,0,19,19,19,1,,
,,,,,974490,001,2025-03-25_11h48.28.273,Emotion.Memoire.2024,2024.1.5,Win32,2.608242045,,,,,,,,,,,,,,IMAGES_EXP_mp4_40/FIXES/FIX-NEUTRE-mp4/image5.mp4,IMAGES_EXP_mp4_40/ANIMEES/10- ANIMEES --NEGATIVES /Video10.mp4,,,,,,,,,,,,6379.513,6380.2613,0.496191513,-0.309575626,1,0,0,0.7448,Vrai,0,20,20,20,1,,
,,,,,974490,001,2025-03-25_11h48.28.273,Emotion.Memoire.2024,2024.1.5,Win32,2.608242045,,,,,,,,,,,,,,IMAGES_EXP_mp4_40/ANIMEES/11-ANIMEES --- NEUTRES /video3.mp4,IMAGES_EXP_mp4_40/ANIMEES/10- ANIMEES --NEGATIVES /Video4.mp4,,,,,,,,,,,,6380.2618,6381.1949,0.496191513,-0.309575626,1,0,0,0.9316,Vrai,0,21,21,21,1,,
,,,,,974490,001,2025-03-25_11h48.28.273,Emotion.Memoire.2024,2024.1.5,Win32,2.608242045,,,,,,,,,,,,,,IMAGES_EXP_mp4_40/ANIMEES/10- ANIMEES --NEGATIVES /Video5.mp4,IMAGES_EXP_mp4_40/ANIMEES/10- ANIMEES --NEGATIVES /Video5.mp4,,,,,,,,,,,,6381.1956,6381.9614,0.496191513,-0.309575626,1,0,0,0.7643,Vrai,0,22,22,22,1,,
,,,,,974490,001,2025-03-25_11h48.28.273,Emotion.Memoire.2024,2024.1.5,Win32,2.608242045,,,,,,,,,,,,,,IMAGES_EXP_mp4_40/ANIMEES/11-ANIMEES --- NEUTRES /video7.mp4,IMAGES_EXP_mp4_40/ANIMEES/11-ANIMEES --- NEUTRES /video6.mp4,,,,,,,,,,,,6381.9618,6382.7783,0.496191513,-0.309575626,1,0,0,0.8149,Vrai,0,23,23,23,1,,
,,,,,974490,001,2025-03-25_11h48.28.273,Emotion.Memoire.2024,2024.1.5,Win32,2.608242045,,,,,,,,,,,,,,IMAGES_EXP_mp4_40/FIXES/FIX-NEGATIF-mp4/Image8.mp4,IMAGES_EXP_mp4_40/ANIMEES/11-ANIMEES --- NEUTRES /video5.mp4,,,,,,,,,,,,6382.7788,6383.6621,0.496191513,-0.309575626,1,0,0,0.8819,Vrai,0,24,24,24,1,,
,,,,,974490,001,2025-03-25_11h48.28.273,Emotion.Memoire.2024,2024.1.5,Win32,2.608242045,,,,,,,,,,,,,,IMAGES_EXP_mp4_40/FIXES/FIX-NEGATIF-mp4/Image2.mp4,DISTRACTEURS-40/DIST.ANIMÉES-20/10.NÉGATIFS/Dist.animee.negatif5.mp4,,,,,,,,,,,,6383.6636,6385.0296,-0.511425462,-0.300870511,1,0,0,1.362,Faux,0,25,25,25,1,,
,,,,,974490,001,2025-03-25_11h48.28.273,Emotion.Memoire.2024,2024.1.5,Win32,2.608242045,,,,,,,,,,,,,,IMAGES_EXP_mp4_40/FIXES/FIX-NEUTRE-mp4/image7.mp4,DISTRACTEURS-40/DIST.ANIMÉES-20/10.NEUTRES/Dist.animee.neutre4.mp4,,,,,,,,,,,,6385.0312,6385.9612,-0.511425462,-0.300870511,1,0,0,0.9262,Faux,0,26,26,26,1,,
,,,,,974490,001,2025-03-25_11h48.28.273,Emotion.Memoire.2024,2024.1.5,Win32,2.608242045,,,,,,,,,,,,,,IMAGES_EXP_mp4_40/ANIMEES/11-ANIMEES --- NEUTRES /video4.mp4,DISTRACTEURS-40/DIST.FIXES-20/10.NEUTRES /Dist.fix.neutre10.mp4,,,,,,,,,,,,6385.9617,6387.2348,-0.511425462,-0.300870511,1,0,0,1.2708,Faux,0,27,27,27,1,,
,,,,,974490,001,2025-03-25_11h48.28.273,Emotion.Memoire.2024,2024.1.5,Win32,2.608242045,,,,,,,,,,,,,,IMAGES_EXP_mp4_40/FIXES/FIX-NEGATIF-mp4/Image1.mp4,IMAGES_EXP_mp4_40/FIXES/FIX-NEGATIF-mp4/Image3.mp4,,,,,,,,,,,,6387.2361,6388.5616,0.47007617,-0.278019587,1,0,0,1.3155,Vrai,0,28,28,28,1,,
,,,,,974490,001,2025-03-25_11h48.28.273,Emotion.Memoire.2024,2024.1.5,Win32,2.608242045,,,,,,,,,,,,,,IMAGES_EXP_mp4_40/ANIMEES/10- ANIMEES --NEGATIVES /Video10.mp4,DISTRACTEURS-40/DIST.FIXES-20/10.NÉGATIFS/Dist.fix.negatif6.mp4,,,,,,,,,,,,6388.5626,6390.0612,-0.498367791,-0.298694233,1,0,0,1.4954,Faux,0,29,29,29,1,,
,,,,,974490,001,2025-03-25_11h48.28.273,Emotion.Memoire.2024,2024.1.5,Win32,2.608242045,,,,,,,,,,,,,,IMAGES_EXP_mp4_40/ANIMEES/11-ANIMEES --- NEUTRES /video8.mp4,IMAGES_EXP_mp4_40/ANIMEES/11-ANIMEES --- NEUTRES /video1.mp4,,,,,,,,,,,,6390.0616,6391.7116,0.494015234,-0.296517954,1,0,0,1.6468,Vrai,0,30,30,30,1,,
,,,,,974490,001,2025-03-25_11h48.28.273,Emotion.Memoire.2024,2024.1.5,Win32,2.608242045,,,,,,,,,,,,,,IMAGES_EXP_mp4_40/FIXES/FIX-NEUTRE-mp4/image6.mp4,IMAGES_EXP_mp4_40/FIXES/FIX-NEUTRE-mp4/image9.mp4,,,,,,,,,,,,6391.7124,6393.5946,0.502720348,-0.293253536,1,0,0,1.8785,Vrai,0,31,31,31,1,,
,,,,,974490,001,2025-03-25_11h48.28.273,Emotion.Memoire.2024,2024.1.5,Win32,2.608242045,,,,,,,,,,,,,,IMAGES_EXP_mp4_40/ANIMEES/10- ANIMEES --NEGATIVES /Video2.mp4,IMAGES_EXP_mp4_40/ANIMEES/10- ANIMEES --NEGATIVES /Video6.mp4,,,,,,,,,,,,6393.5953,6394.3445,0.502720348,-0.293253536,1,0,0,0.7463,Vrai,0,32,32,32,1,,
,,,,,974490,001,2025-03-25_11h48.28.273,Emotion.Memoire.2024,2024.1.5,Win32,2.608242045,,,,,,,,,,,,,,IMAGES_EXP_mp4_40/ANIMEES/10- ANIMEES --NEGATIVES /Video3.mp4,IMAGES_EXP_mp4_40/ANIMEES/11-ANIMEES --- NEUTRES /video3.mp4,,,,,,,,,,,,6394.345,6395.0788,0.502720348,-0.293253536,1,0,0,0.7311,Vrai,0,33,33,33,1,,
,,,,,974490,001,2025-03-25_11h48.28.273,Emotion.Memoire.2024,2024.1.5,Win32,2.608242045,,,,,,,,,,,,,,IMAGES_EXP_mp4_40/FIXES/FIX-NEUTRE-mp4/image2.mp4,DISTRACTEURS-40/DIST.ANIMÉES-20/10.NÉGATIFS/Dist.animee.negatif7.mp4,,,,,,,,,,,,6395.0801,6396.4111,-0.495103373,-0.282372144,1,0,0,1.3244,Faux,0,34,34,34,1,,
,,,,,974490,001,2025-03-25_11h48.28.273,Emotion.Memoire.2024,2024.1.5,Win32,2.608242045,,,,,,,,,,,,,,IMAGES_EXP_mp4_40/FIXES/FIX-NEUTRE-mp4/image3.mp4,IMAGES_EXP_mp4_40/ANIMEES/11-ANIMEES --- NEUTRES /video9.mp4,,,,,,,,,,,,6396.4115,6397.6321,0.489662677,-0.266050054,1,0,0,1.2177,Vrai,0,35,35,35,1,,
,,,,,974490,001,2025-03-25_11h48.28.273,Emotion.Memoire.2024,2024.1.5,Win32,2.608242045,,,,,,,,,,,,,,IMAGES_EXP_mp4_40/FIXES/FIX-NEGATIF-mp4/Image9.mp4,DISTRACTEURS-40/DIST.ANIMÉES-20/10.NEUTRES/Dist.animee.neutre6.mp4,,,,,,,,,,,,6397.633,6399.1612,-0.527747552,-0.297606094,1,0,0,1.5262,Faux,0,36,36,36,1,,
,,,,,974490,001,2025-03-25_11h48.28.273,Emotion.Memoire.2024,2024.1.5,Win32,2.608242045,,,,,,,,,,,,,,IMAGES_EXP_mp4_40/FIXES/FIX-NEGATIF-mp4/Image7.mp4,IMAGES_EXP_mp4_40/FIXES/FIX-NEGATIF-mp4/Image8.mp4,,,,,,,,,,,,6399.1619,6400.2623,0.502720348,-0.269314472,1,0,0,1.0976,Vrai,0,37,37,37,1,,
,,,,,974490,001,2025-03-25_11h48.28.273,Emotion.Memoire.2024,2024.1.5,Win32,2.608242045,,,,,,,,,,,,,,IMAGES_EXP_mp4_40/ANIMEES/10- ANIMEES --NEGATIVES /Video6.mp4,IMAGES_EXP_mp4_40/FIXES/FIX-NEUTRE-mp4/image8.mp4,,,,,,,,,,,,6400.2645,6401.595,0.482045702,-0.282372144,1,0,0,1.3236,Vrai,0,38,38,38,1,,
,,,,,974490,001,2025-03-25_11h48.28.273,Emotion.Memoire.2024,2024.1.5,Win32,2.608242045,,,,,,,,,,,,,,IMAGES_EXP_mp4_40/FIXES/FIX-NEUTRE-mp4/image1.mp4,IMAGES_EXP_mp4_40/ANIMEES/11-ANIMEES --- NEUTRES /video7.mp4,,,,,,,,,,,,6401.596,6402.8947,0.521218716,-0.28781284,1,0,0,1.2957,Vrai,0,39,39,39,1,,
,,,,,974490,001,2025-03-25_11h48.28.273,Emotion.Memoire.2024,2024.1.5,Win32,2.608242045,,,,,,,,,,,,,,IMAGES_EXP_mp4_40/ANIMEES/10- ANIMEES --NEGATIVES /Video1.mp4,DISTRACTEURS-40/DIST.ANIMÉES-20/10.NÉGATIFS/Dist.animee.negatif1.mp4,,,,,,,,,,,,6402.8955,6404.0612,-0.54515778,-0.296517954,1,0,0,1.164,Faux,0,40,40,40,1,,
,,,,,974490,001,2025-03-25_11h48.28.273,Emotion.Memoire.2024,2024.1.5,Win32,2.608242045,,,,,,,,,,,,,,,DISTRACTEURS-40/DIST.FIXES-20/10.NEUTRES /Dist.fix.neutre9.mp4,,,,,,,,,,,,6404.0615,6407,-0.51468988,-0.294341676,1,0,0,2.9365,Faux,0,41,41,41,1,,
,,,,,974490,001,2025-03-25_11h48.28.273,Emotion.Memoire.2024,2024.1.5,Win32,2.608242045,,,,,,,,,,,,,,,DISTRACTEURS-40/DIST.FIXES-20/10.NÉGATIFS/Dist.fix.negatif7.mp4,,,,,,,,,,,,6407.0014,6407.9815,-0.51468988,-0.294341676,1,0,0,0.9775,Faux,0,42,42,42,1,,
,,,,,974490,001,2025-03-25_11h48.28.273,Emotion.Memoire.2024,2024.1.5,Win32,2.608242045,,,,,,,,,,,,,,,DISTRACTEURS-40/DIST.ANIMÉES-20/10.NEUTRES/Dist.animee.neutre9.mp4,,,,,,,,,,,,6407.9825,6408.878,-0.51468988,-0.294341676,1,0,0,0.8944,Faux,0,43,43,43,1,,
,,,,,974490,001,2025-03-25_11h48.28.273,Emotion.Memoire.2024,2024.1.5,Win32,2.608242045,,,,,,,,,,,,,,,DISTRACTEURS-40/DIST.FIXES-20/10.NÉGATIFS/Dist.fix.negatif1.mp4,,,,,,,,,,,,6408.8787,6409.6279,-0.51468988,-0.294341676,1,0,0,0.7468,Faux,0,44,44,44,1,,
,,,,,974490,001,2025-03-25_11h48.28.273,Emotion.Memoire.2024,2024.1.5,Win32,2.608242045,,,,,,,,,,,,,,,DISTRACTEURS-40/DIST.ANIMÉES-20/10.NÉGATIFS/Dist.animee.negatif6.mp4,,,,,,,,,,,,6409.6288,6410.3928,-0.51468988,-0.294341676,1,0,0,0.7589,Faux,0,45,45,45,1,,
,,,,,974490,001,2025-03-25_11h48.28.273,Emotion.Memoire.2024,2024.1.5,Win32,2.608242045,,,,,,,,,,,,,,,DISTRACTEURS-40/DIST.ANIMÉES-20/10.NÉGATIFS/Dist.animee.negatif2.mp4,,,,,,,,,,,,6410.3937,6411.2111,-0.51468988,-0.294341676,1,0,0,0.813,Faux,0,46,46,46,1,,
,,,,,974490,001,2025-03-25_11h48.28.273,Emotion.Memoire.2024,2024.1.5,Win32,2.608242045,,,,,,,,,,,,,,,IMAGES_EXP_mp4_40/FIXES/FIX-NEGATIF-mp4/Image4.mp4,,,,,,,,,,,,6411.2116,6412.3779,0.511425462,-0.286724701,1,0,0,1.1546,Vrai,0,47,47,47,1,,
,,,,,974490,001,2025-03-25_11h48.28.273,Emotion.Memoire.2024,2024.1.5,Win32,2.608242045,,,,,,,,,,,,,,,IMAGES_EXP_mp4_40/ANIMEES/10- ANIMEES --NEGATIVES /Video7.mp4,,,,,,,,,,,,6412.3789,6413.1445,0.511425462,-0.286724701,1,0,0,0.7613,Vrai,0,48,48,48,1,,
,,,,,974490,001,2025-03-25_11h48.28.273,Emotion.Memoire.2024,2024.1.5,Win32,2.608242045,,,,,,,,,,,,,,,IMAGES_EXP_mp4_40/FIXES/FIX-NEUTRE-mp4/image4.mp4,,,,,,,,,,,,6413.1451,6413.7946,0.511425462,-0.286724701,1,0,0,0.6462,Vrai,0,49,49,49,1,,
,,,,,974490,001,2025-03-25_11h48.28.273,Emotion.Memoire.2024,2024.1.5,Win32,2.608242045,,,,,,,,,,,,,,,DISTRACTEURS-40/DIST.FIXES-20/10.NÉGATIFS/Dist.fix.negatif5.mp4,,,,,,,,,,,,6413.7954,6415.3647,-0.503808487,-0.283460283,1,0,0,1.5639,Faux,0,50,50,50,1,,
,,,,,974490,001,2025-03-25_11h48.28.273,Emotion.Memoire.2024,2024.1.5,Win32,2.608242045,,,,,,,,,,,,,,,DISTRACTEURS-40/DIST.ANIMÉES-20/10.NÉGATIFS/Dist.animee.negatif9.mp4,,,,,,,,,,,,6415.3653,6416.4171,-0.503808487,-0.283460283,1,0,0,1.0451,Faux,0,51,51,51,1,,
,,,,,974490,001,2025-03-25_11h48.28.273,Emotion.Memoire.2024,2024.1.5,Win32,2.608242045,,,,,,,,,,,,,,,IMAGES_EXP_mp4_40/ANIMEES/11-ANIMEES --- NEUTRES /video2.mp4,,,,,,,,,,,,6416.4269,6417.5621,0.533188248,-0.283460283,1,0,0,1.1235,Vrai,0,52,52,52,1,,
,,,,,974490,001,2025-03-25_11h48.28.273,Emotion.Memoire.2024,2024.1.5,Win32,2.608242045,,,,,,,,,,,,,,,DISTRACTEURS-40/DIST.ANIMÉES-20/10.NEUTRES/Dist.animee.neutre5.mp4,,,,,,,,,,,,6417.5674,6419.178,-0.516866159,-0.279107726,1,0,0,1.6021,Faux,0,53,53,53,1,,
,,,,,974490,001,2025-03-25_11h48.28.273,Emotion.Memoire.2024,2024.1.5,Win32,2.608242045,,,,,,,,,,,,,,,IMAGES_EXP_mp4_40/FIXES/FIX-NEGATIF-mp4/Image7.mp4,,,,,,,,,,,,6419.1788,6479.2785,-0.071817193,-0.251904244,1,0,0,11.4632,Faux,0,54,54,54,1,,
,,,,,974490,001,2025-03-25_11h48.28.273,Emotion.Memoire.2024,2024.1.5,Win32,2.608242045,,,,,,,,,,,,,,,IMAGES_EXP_mp4_40/FIXES/FIX-NEGATIF-mp4/Image6.mp4,,,,,,,,,,,,6479.2914,6481.195,0.49945593,-0.298694233,1,0,0,1.894,Vrai,0,55,55,55,1,,
,,,,,974490,001,2025-03-25_11h48.28.273,Emotion.Memoire.2024,2024.1.5,Win32,2.608242045,,,,,,,,,,,,,,,IMAGES_EXP_mp4_40/FIXES/FIX-NEGATIF-mp4/Image5.mp4,,,,,,,,,,,,6481.1966,6482.0782,0.49945593,-0.298694233,1,0,0,0.8718,Vrai,0,56,56,56,1,,
,,,,,974490,001,2025-03-25_11h48.28.273,Emotion.Memoire.2024,2024.1.5,Win32,2.608242045,,,,,,,,,,,,,,,IMAGES_EXP_mp4_40/ANIMEES/11-ANIMEES --- NEUTRES /video10.mp4,,,,,,,,,,,,6482.0796,6482.8113,0.49945593,-0.298694233,1,0,0,0.7201,Vrai,0,57,57,57,1,,
,,,,,974490,001,2025-03-25_11h48.28.273,Emotion.Memoire.2024,2024.1.5,Win32,2.608242045,,,,,,,,,,,,,,,DISTRACTEURS-40/DIST.FIXES-20/10.NEUTRES /Dist.fix.neutre4.mp4,,,,,,,,,,,,6482.8126,6484.5382,-0.475516866,-0.28781284,1,0,0,1.7223,Faux,0,58,58,58,1,,
,,,,,974490,001,2025-03-25_11h48.28.273,Emotion.Memoire.2024,2024.1.5,Win32,2.608242045,,,,,,,,,,,,,,,IMAGES_EXP_mp4_40/ANIMEES/11-ANIMEES --- NEUTRES /video4.mp4,,,,,,,,,,,,6484.5397,6485.6451,0.50054407,-0.288900979,1,0,0,1.0926,Vrai,0,59,59,59,1,,
,,,,,974490,001,2025-03-25_11h48.28.273,Emotion.Memoire.2024,2024.1.5,Win32,2.608242045,,,,,,,,,,,,,,,DISTRACTEURS-40/DIST.FIXES-20/10.NEUTRES /Dist.fix.neutre6.mp4,,,,,,,,,,,,6485.6459,6487.1923,-0.558215452,-0.328073993,1,0,0,1.5438,Faux,0,60,60,60,1,,
,,,,,974490,001,2025-03-25_11h48.28.273,Emotion.Memoire.2024,2024.1.5,Win32,2.608242045,,,,,,,,,,,,,,,DISTRACTEURS-40/DIST.FIXES-20/10.NEUTRES /Dist.fix.neutre3.mp4,,,,,,,,,,,,6487.1928,6489.7373,-0.463547334,-0.278019587,1,0,0,2.5328,Faux,0,61,61,61,1,,
,,,,,974490,001,2025-03-25_11h48.28.273,Emotion.Memoire.2024,2024.1.5,Win32,2.608242045,,,,,,,,,,,,,,,DISTRACTEURS-40/DIST.FIXES-20/10.NÉGATIFS/Dist.fix.negatif10.mp4,,,,,,,,,,,,6489.7386,6490.6122,-0.463547334,-0.278019587,1,0,0,0.8584,Faux,0,62,62,62,1,,
,,,,,974490,001,2025-03-25_11h48.28.273,Emotion.Memoire.2024,2024.1.5,Win32,2.608242045,,,,,,,,,,,,,,,IMAGES_EXP_mp4_40/ANIMEES/10- ANIMEES --NEGATIVES /Video1.mp4,,,,,,,,,,,,6490.6138,6491.9779,0.479869423,-0.273667029,1,0,0,1.3555,Vrai,0,63,63,63,1,,
,,,,,974490,001,2025-03-25_11h48.28.273,Emotion.Memoire.2024,2024.1.5,Win32,2.608242045,,,,,,,,,,,,,,,DISTRACTEURS-40/DIST.FIXES-20/10.NÉGATIFS/Dist.fix.negatif9.mp4,,,,,,,,,,,,6491.9783,6493.3615,-0.527747552,-0.293253536,1,0,0,1.3796,Faux,0,64,64,64,1,,
,,,,,974490,001,2025-03-25_11h48.28.273,Emotion.Memoire.2024,2024.1.5,Win32,2.608242045,,,,,,,,,,,,,,,DISTRACTEURS-40/DIST.FIXES-20/10.NÉGATIFS/Dist.fix.negatif2.mp4,,,,,,,,,,,,6493.3622,6494.3343,-0.51468988,-0.292165397,1,0,0,0.967,Faux,0,65,65,65,1,,
,,,,,974490,001,2025-03-25_11h48.28.273,Emotion.Memoire.2024,2024.1.5,Win32,2.608242045,,,,,,,,,,,,,,,IMAGES_EXP_mp4_40/FIXES/FIX-NEUTRE-mp4/image10.mp4,,,,,,,,,,,,6494.335,6495.5112,0.53101197,-0.288900979,1,0,0,1.1712,Vrai,0,66,66,66,1,,
,,,,,974490,001,2025-03-25_11h48.28.273,Emotion.Memoire.2024,2024.1.5,Win32,2.608242045,,,,,,,,,,,,,,,IMAGES_EXP_mp4_40/FIXES/FIX-NEGATIF-mp4/Image1.mp4,,,,,,,,,,,,6495.5117,6496.2612,0.53101197,-0.288900979,1,0,0,0.7457,Vrai,0,67,67,67,1,,
,,,,,974490,001,2025-03-25_11h48.28.273,Emotion.Memoire.2024,2024.1.5,Win32,2.608242045,,,,,,,,,,,,,,,IMAGES_EXP_mp4_40/ANIMEES/10- ANIMEES --NEGATIVES /Video3.mp4,,,,,,,,,,,,6496.2616,6497.4278,0.522306855,-0.276931447,1,0,0,1.162,Vrai,0,68,68,68,1,,
,,,,,974490,001,2025-03-25_11h48.28.273,Emotion.Memoire.2024,2024.1.5,Win32,2.608242045,,,,,,,,,,,,,,,DISTRACTEURS-40/DIST.FIXES-20/10.NEUTRES /Dist.fix.neutre1.mp4,,,,,,,,,,,,6497.4287,6498.5949,-0.51577802,-0.256256801,1,0,0,1.1642,Faux,0,69,69,69,1,,
,,,,,974490,001,2025-03-25_11h48.28.273,Emotion.Memoire.2024,2024.1.5,Win32,2.608242045,,,,,,,,,,,,,,,DISTRACTEURS-40/DIST.FIXES-20/10.NÉGATIFS/Dist.fix.negatif3.mp4,,,,,,,,,,,,6498.5957,6499.7309,-0.516866159,-0.258433079,1,0,0,1.1284,Faux,0,70,70,70,1,,
,,,,,974490,001,2025-03-25_11h48.28.273,Emotion.Memoire.2024,2024.1.5,Win32,2.608242045,,,,,,,,,,,,,,,IMAGES_EXP_mp4_40/FIXES/FIX-NEUTRE-mp4/image3.mp4,,,,,,,,,,,,6499.7325,6500.8617,0.49945593,-0.264961915,1,0,0,1.1255,Vrai,0,71,71,71,1,,
,,,,,974490,001,2025-03-25_11h48.28.273,Emotion.Memoire.2024,2024.1.5,Win32,2.608242045,,,,,,,,,,,,,,,IMAGES_EXP_mp4_40/FIXES/FIX-NEGATIF-mp4/Image10.mp4,,,,,,,,,,,,6500.8628,6501.5945,0.49945593,-0.264961915,1,0,0,0.7243,Vrai,0,72,72,72,1,,
,,,,,974490,001,2025-03-25_11h48.28.273,Emotion.Memoire.2024,2024.1.5,Win32,2.608242045,,,,,,,,,,,,,,,IMAGES_EXP_mp4_40/FIXES/FIX-NEUTRE-mp4/image1.mp4,,,,,,,,,,,,6501.5949,6502.2951,0.49945593,-0.264961915,1,0,0,0.6969,Vrai,0,73,73,73,1,,
,,,,,974490,001,2025-03-25_11h48.28.273,Emotion.Memoire.2024,2024.1.5,Win32,2.608242045,,,,,,,,,,,,,,,DISTRACTEURS-40/DIST.ANIMÉES-20/10.NEUTRES/Dist.animee.neutre8.mp4,,,,,,,,,,,,6502.296,6503.5448,-0.504896627,-0.285636561,1,0,0,1.244,Faux,0,74,74,74,1,,
,,,,,974490,001,2025-03-25_11h48.28.273,Emotion.Memoire.2024,2024.1.5,Win32,2.608242045,,,,,,,,,,,,,,,DISTRACTEURS-40/DIST.FIXES-20/10.NÉGATIFS/Dist.fix.negatif4.mp4,,,,,,,,,,,,6503.5455,6504.7137,-0.504896627,-0.285636561,1,0,0,1.1625,Faux,0,75,75,75,1,,
,,,,,974490,001,2025-03-25_11h48.28.273,Emotion.Memoire.2024,2024.1.5,Win32,2.608242045,,,,,,,,,,,,,,,DISTRACTEURS-40/DIST.ANIMÉES-20/10.NÉGATIFS/Dist.animee.negatif3.mp4,,,,,,,,,,,,6504.7226,6505.5279,-0.504896627,-0.285636561,1,0,0,0.7933,Faux,0,76,76,76,1,,
,,,,,974490,001,2025-03-25_11h48.28.273,Emotion.Memoire.2024,2024.1.5,Win32,2.608242045,,,,,,,,,,,,,,,DISTRACTEURS-40/DIST.ANIMÉES-20/10.NEUTRES/Dist.animee.neutre2.mp4,,,,,,,,,,,,6505.5312,6506.1614,-0.504896627,-0.285636561,1,0,0,0.6276,Faux,0,77,77,77,1,,
,,,,,974490,001,2025-03-25_11h48.28.273,Emotion.Memoire.2024,2024.1.5,Win32,2.608242045,,,,,,,,,,,,,,,IMAGES_EXP_mp4_40/ANIMEES/10- ANIMEES --NEGATIVES /Video9.mp4,,,,,,,,,,,,6506.1622,6507.6613,0.475516866,-0.275843308,1,0,0,1.4934,Vrai,0,78,78,78,1,,
,,,,,974490,001,2025-03-25_11h48.28.273,Emotion.Memoire.2024,2024.1.5,Win32,2.608242045,,,,,,,,,,,,,,,DISTRACTEURS-40/DIST.ANIMÉES-20/10.NEUTRES/Dist.animee.neutre7.mp4,,,,,,,,,,,,6507.6625,6509.0784,-0.505984766,-0.298694233,1,0,0,1.4119,Faux,0,79,79,79,1,,
,,,,,974490,001,2025-03-25_11h48.28.273,Emotion.Memoire.2024,2024.1.5,Win32,2.608242045,,,,,,,,,,,,,,,,,,,,,,,,,,,,,,,,,,,,,,,,,6509.0899,6524.078
