Consigne.started,Consigne.stopped,Key_resp1.keys,Key_resp1.rt,Key_resp1.duration,participant,session,date,expName,psychopyVersion,OS,frameRate,IMAGES.started,IMAGES.stopped,SAM.started,SAM.stopped,Plaisir.response,Plaisir.rt,EVEIL.response,EVEIL.rt,trials.thisRepN,trials.thisTrialN,trials.thisN,trials.thisIndex,trials.ran,ImageFile,ImagesDistracteursFile,Test,Calcul.started,Calcul.stopped,Key_response.keys,Key_response.rt,Key_response.duration,Consigne_reco.started,Consigne_reco.stopped,key_resp_reconn.keys,key_resp_reconn.rt,key_resp_reconn.duration,DISTRACTEURS.started,DISTRACTEURS.stopped,mouse.x,mouse.y,mouse.leftButton,mouse.midButton,mouse.rightButton,mouse.time,mouse.clicked_name,trials_2.thisRepN,trials_2.thisTrialN,trials_2.thisN,trials_2.thisIndex,trials_2.ran,MERCI.started,MERCI.stopped
9.99999E-05,53.5195,space,53.4348,,P002,001,2025-01-09_14h32.30.407,Emotion.Memoire.2024,2024.1.5,Win32,60.24096386,,,,,,,,,,,,,,,,,,,,,,,,,,,,,,,,,,,,,,,,,,
,,,,,P002,001,2025-01-09_14h32.30.407,Emotion.Memoire.2024,2024.1.5,Win32,60.24096386,53.5264,63.5188,63.5191,84.2682,5,9.9428,1,20.7397,0,0,0,0,1,IMAGES_EXP_mp4_40/FIXES/FIX-NEGATIF-mp4/Image6.mp4,DISTRACTEURS-40/DIST.ANIMÉES-20/10.NÉGATIFS/Dist.animee.negatif10.mp4,IMAGES_EXP_mp4_40/ANIMEES/10- ANIMEES --NEGATIVES /Video1.mp4,,,,,,,,,,,,,,,,,,,,,,,,,,
,,,,,P002,001,2025-01-09_14h32.30.407,Emotion.Memoire.2024,2024.1.5,Win32,60.24096386,84.2693,94.2708,94.2709,121.3166,5,8.6876,1,27.0343,0,1,1,1,1,IMAGES_EXP_mp4_40/FIXES/FIX-NEUTRE-mp4/image9.mp4,DISTRACTEURS-40/DIST.ANIMÉES-20/10.NEUTRES/Dist.animee.neutre3.mp4,DISTRACTEURS-40/DIST.FIXES-20/10.NÉGATIFS/Dist.fix.negatif3.mp4,,,,,,,,,,,,,,,,,,,,,,,,,,
,,,,,P002,001,2025-01-09_14h32.30.407,Emotion.Memoire.2024,2024.1.5,Win32,60.24096386,121.317,131.3159,131.3171,147.8987,2,7.0134,6,16.5781,0,2,2,2,1,IMAGES_EXP_mp4_40/FIXES/FIX-NEGATIF-mp4/Image3.mp4,IMAGES_EXP_mp4_40/ANIMEES/10- ANIMEES --NEGATIVES /Video2.mp4,DISTRACTEURS-40/DIST.FIXES-20/10.NÉGATIFS/Dist.fix.negatif5.mp4,,,,,,,,,,,,,,,,,,,,,,,,,,
,,,,,P002,001,2025-01-09_14h32.30.407,Emotion.Memoire.2024,2024.1.5,Win32,60.24096386,147.8992,157.902,157.9022,172.8812,3,9.4326,4,14.9686,0,3,3,3,1,IMAGES_EXP_mp4_40/FIXES/FIX-NEGATIF-mp4/Image4.mp4,IMAGES_EXP_mp4_40/FIXES/FIX-NEUTRE-mp4/image6.mp4,,,,,,,,,,,,,,,,,,,,,,,,,,,
,,,,,P002,001,2025-01-09_14h32.30.407,Emotion.Memoire.2024,2024.1.5,Win32,60.24096386,172.8817,182.8807,182.881,190.28,4,5.5565,2,7.3921,0,4,4,4,1,IMAGES_EXP_mp4_40/FIXES/FIX-NEGATIF-mp4/Image10.mp4,IMAGES_EXP_mp4_40/FIXES/FIX-NEUTRE-mp4/image2.mp4,,,,,,,,,,,,,,,,,,,,,,,,,,,
,,,,,P002,001,2025-01-09_14h32.30.407,Emotion.Memoire.2024,2024.1.5,Win32,60.24096386,190.2804,200.2296,200.2296,207.596,6,5.2715,1,7.3578,0,5,5,5,1,IMAGES_EXP_mp4_40/ANIMEES/11-ANIMEES --- NEUTRES /video10.mp4,DISTRACTEURS-40/DIST.FIXES-20/10.NEUTRES /Dist.fix.neutre7.mp4,,,,,,,,,,,,,,,,,,,,,,,,,,,
,,,,,P002,001,2025-01-09_14h32.30.407,Emotion.Memoire.2024,2024.1.5,Win32,60.24096386,207.5964,217.596,217.5964,221.9955,5,2.7723,1,4.389,0,6,6,6,1,IMAGES_EXP_mp4_40/ANIMEES/10- ANIMEES --NEGATIVES /Video4.mp4,DISTRACTEURS-40/DIST.ANIMÉES-20/10.NÉGATIFS/Dist.animee.negatif4.mp4,,,,,,,,,,,,,,,,,,,,,,,,,,,
,,,,,P002,001,2025-01-09_14h32.30.407,Emotion.Memoire.2024,2024.1.5,Win32,60.24096386,221.9964,231.998,231.9983,236.7284,5,3.3529,1,4.7226,0,7,7,7,1,IMAGES_EXP_mp4_40/FIXES/FIX-NEUTRE-mp4/image10.mp4,IMAGES_EXP_mp4_40/FIXES/FIX-NEGATIF-mp4/Image2.mp4,,,,,,,,,,,,,,,,,,,,,,,,,,,
,,,,,P002,001,2025-01-09_14h32.30.407,Emotion.Memoire.2024,2024.1.5,Win32,60.24096386,236.7288,246.5779,246.5781,260.8771,3,10.1025,1,14.2886,0,8,8,8,1,IMAGES_EXP_mp4_40/ANIMEES/10- ANIMEES --NEGATIVES /Video1.mp4,IMAGES_EXP_mp4_40/FIXES/FIX-NEGATIF-mp4/Image9.mp4,,,,,,,,,,,,,,,,,,,,,,,,,,,
,,,,,P002,001,2025-01-09_14h32.30.407,Emotion.Memoire.2024,2024.1.5,Win32,60.24096386,260.8778,270.877,270.8776,279.1264,4,5.059,1,8.2411,0,9,9,9,1,IMAGES_EXP_mp4_40/FIXES/FIX-NEUTRE-mp4/image4.mp4,DISTRACTEURS-40/DIST.FIXES-20/10.NEUTRES /Dist.fix.neutre8.mp4,,,,,,,,,,,,,,,,,,,,,,,,,,,
,,,,,P002,001,2025-01-09_14h32.30.407,Emotion.Memoire.2024,2024.1.5,Win32,60.24096386,279.1269,289.128,289.1281,298.7921,6,4.7527,2,9.6586,0,10,10,10,1,IMAGES_EXP_mp4_40/ANIMEES/11-ANIMEES --- NEUTRES /video6.mp4,DISTRACTEURS-40/DIST.ANIMÉES-20/10.NÉGATIFS/Dist.animee.negatif8.mp4,,,,,,,,,,,,,,,,,,,,,,,,,,,
,,,,,P002,001,2025-01-09_14h32.30.407,Emotion.Memoire.2024,2024.1.5,Win32,60.24096386,298.7926,308.7919,308.7923,316.6753,5,4.3569,2,7.8712,0,11,11,11,1,IMAGES_EXP_mp4_40/ANIMEES/11-ANIMEES --- NEUTRES /video9.mp4,IMAGES_EXP_mp4_40/ANIMEES/11-ANIMEES --- NEUTRES /video8.mp4,,,,,,,,,,,,,,,,,,,,,,,,,,,
,,,,,P002,001,2025-01-09_14h32.30.407,Emotion.Memoire.2024,2024.1.5,Win32,60.24096386,316.6758,326.6747,326.675,330.2408,6,2.2048,1,3.5613,0,12,12,12,1,IMAGES_EXP_mp4_40/FIXES/FIX-NEUTRE-mp4/image8.mp4,IMAGES_EXP_mp4_40/ANIMEES/10- ANIMEES --NEGATIVES /Video8.mp4,,,,,,,,,,,,,,,,,,,,,,,,,,,
,,,,,P002,001,2025-01-09_14h32.30.407,Emotion.Memoire.2024,2024.1.5,Win32,60.24096386,330.2411,340.2411,340.2417,344.9072,5,3.5555,1,4.6549,0,13,13,13,1,IMAGES_EXP_mp4_40/ANIMEES/11-ANIMEES --- NEUTRES /video5.mp4,DISTRACTEURS-40/DIST.FIXES-20/10.NÉGATIFS/Dist.fix.negatif8.mp4,,,,,,,,,,,,,,,,,,,,,,,,,,,
,,,,,P002,001,2025-01-09_14h32.30.407,Emotion.Memoire.2024,2024.1.5,Win32,60.24096386,344.9075,354.9067,354.9068,358.1233,6,1.7098,1,3.2048,0,14,14,14,1,IMAGES_EXP_mp4_40/ANIMEES/11-ANIMEES --- NEUTRES /video1.mp4,DISTRACTEURS-40/DIST.FIXES-20/10.NEUTRES /Dist.fix.neutre2.mp4,,,,,,,,,,,,,,,,,,,,,,,,,,,
,,,,,P002,001,2025-01-09_14h32.30.407,Emotion.Memoire.2024,2024.1.5,Win32,60.24096386,358.1238,367.2729,367.273,375.6225,2,3.9909,4,8.3395,0,15,15,15,1,IMAGES_EXP_mp4_40/ANIMEES/10- ANIMEES --NEGATIVES /Video9.mp4,DISTRACTEURS-40/DIST.ANIMÉES-20/10.NEUTRES/Dist.animee.neutre10.mp4,,,,,,,,,,,,,,,,,,,,,,,,,,,
,,,,,P002,001,2025-01-09_14h32.30.407,Emotion.Memoire.2024,2024.1.5,Win32,60.24096386,375.6227,384.4551,384.4553,393.3884,4,6.7968,2,8.9301,0,16,16,16,1,IMAGES_EXP_mp4_40/ANIMEES/10- ANIMEES --NEGATIVES /Video8.mp4,DISTRACTEURS-40/DIST.FIXES-20/10.NEUTRES /Dist.fix.neutre5.mp4,,,,,,,,,,,,,,,,,,,,,,,,,,,
,,,,,P002,001,2025-01-09_14h32.30.407,Emotion.Memoire.2024,2024.1.5,Win32,60.24096386,393.3886,403.3881,403.3883,408.0878,2,3.3882,3,4.6885,0,17,17,17,1,IMAGES_EXP_mp4_40/FIXES/FIX-NEGATIF-mp4/Image5.mp4,DISTRACTEURS-40/DIST.ANIMÉES-20/10.NEUTRES/Dist.animee.neutre1.mp4,,,,,,,,,,,,,,,,,,,,,,,,,,,
,,,,,P002,001,2025-01-09_14h32.30.407,Emotion.Memoire.2024,2024.1.5,Win32,60.24096386,408.088,418.0875,418.0876,423.6871,8,2.8657,1,5.5974,0,18,18,18,1,IMAGES_EXP_mp4_40/ANIMEES/11-ANIMEES --- NEUTRES /video2.mp4,IMAGES_EXP_mp4_40/FIXES/FIX-NEUTRE-mp4/image5.mp4,,,,,,,,,,,,,,,,,,,,,,,,,,,
,,,,,P002,001,2025-01-09_14h32.30.407,Emotion.Memoire.2024,2024.1.5,Win32,60.24096386,423.6873,433.6868,433.687,438.1866,2,2.2639,4,4.4917,0,19,19,19,1,IMAGES_EXP_mp4_40/ANIMEES/10- ANIMEES --NEGATIVES /Video7.mp4,IMAGES_EXP_mp4_40/FIXES/FIX-NEUTRE-mp4/image7.mp4,,,,,,,,,,,,,,,,,,,,,,,,,,,
,,,,,P002,001,2025-01-09_14h32.30.407,Emotion.Memoire.2024,2024.1.5,Win32,60.24096386,438.1868,448.1863,448.1864,452.319,7,1.7892,2,4.1224,0,20,20,20,1,IMAGES_EXP_mp4_40/FIXES/FIX-NEUTRE-mp4/image5.mp4,IMAGES_EXP_mp4_40/ANIMEES/10- ANIMEES --NEGATIVES /Video10.mp4,,,,,,,,,,,,,,,,,,,,,,,,,,,
,,,,,P002,001,2025-01-09_14h32.30.407,Emotion.Memoire.2024,2024.1.5,Win32,60.24096386,452.3193,462.3237,462.3238,466.4903,5,2.8323,1,4.1656,0,21,21,21,1,IMAGES_EXP_mp4_40/ANIMEES/11-ANIMEES --- NEUTRES /video3.mp4,IMAGES_EXP_mp4_40/ANIMEES/10- ANIMEES --NEGATIVES /Video4.mp4,,,,,,,,,,,,,,,,,,,,,,,,,,,
,,,,,P002,001,2025-01-09_14h32.30.407,Emotion.Memoire.2024,2024.1.5,Win32,60.24096386,466.4907,476.4896,476.4897,483.9065,2,5.4484,5,7.4159,0,22,22,22,1,IMAGES_EXP_mp4_40/ANIMEES/10- ANIMEES --NEGATIVES /Video5.mp4,IMAGES_EXP_mp4_40/ANIMEES/10- ANIMEES --NEGATIVES /Video5.mp4,,,,,,,,,,,,,,,,,,,,,,,,,,,
,,,,,P002,001,2025-01-09_14h32.30.407,Emotion.Memoire.2024,2024.1.5,Win32,60.24096386,483.9065,493.9069,493.9072,506.1839,5,9.403,1,12.2707,0,23,23,23,1,IMAGES_EXP_mp4_40/ANIMEES/11-ANIMEES --- NEUTRES /video7.mp4,IMAGES_EXP_mp4_40/ANIMEES/11-ANIMEES --- NEUTRES /video6.mp4,,,,,,,,,,,,,,,,,,,,,,,,,,,
,,,,,P002,001,2025-01-09_14h32.30.407,Emotion.Memoire.2024,2024.1.5,Win32,60.24096386,506.1841,516.1834,516.1836,521.3498,2,3.7456,3,5.1572,0,24,24,24,1,IMAGES_EXP_mp4_40/FIXES/FIX-NEGATIF-mp4/Image8.mp4,IMAGES_EXP_mp4_40/ANIMEES/11-ANIMEES --- NEUTRES /video5.mp4,,,,,,,,,,,,,,,,,,,,,,,,,,,
,,,,,P002,001,2025-01-09_14h32.30.407,Emotion.Memoire.2024,2024.1.5,Win32,60.24096386,521.3501,531.3497,531.35,540.3323,1,7.0429,4,8.9694,0,25,25,25,1,IMAGES_EXP_mp4_40/FIXES/FIX-NEGATIF-mp4/Image2.mp4,DISTRACTEURS-40/DIST.ANIMÉES-20/10.NÉGATIFS/Dist.animee.negatif5.mp4,,,,,,,,,,,,,,,,,,,,,,,,,,,
,,,,,P002,001,2025-01-09_14h32.30.407,Emotion.Memoire.2024,2024.1.5,Win32,60.24096386,540.3326,550.3351,550.3353,556.7365,5,3.3441,1,6.4004,0,26,26,26,1,IMAGES_EXP_mp4_40/FIXES/FIX-NEUTRE-mp4/image7.mp4,DISTRACTEURS-40/DIST.ANIMÉES-20/10.NEUTRES/Dist.animee.neutre4.mp4,,,,,,,,,,,,,,,,,,,,,,,,,,,
,,,,,P002,001,2025-01-09_14h32.30.407,Emotion.Memoire.2024,2024.1.5,Win32,60.24096386,556.7367,566.7312,566.7314,572.9146,7,3.0793,1,6.1753,0,27,27,27,1,IMAGES_EXP_mp4_40/ANIMEES/11-ANIMEES --- NEUTRES /video4.mp4,DISTRACTEURS-40/DIST.FIXES-20/10.NEUTRES /Dist.fix.neutre10.mp4,,,,,,,,,,,,,,,,,,,,,,,,,,,
,,,,,P002,001,2025-01-09_14h32.30.407,Emotion.Memoire.2024,2024.1.5,Win32,60.24096386,572.9149,582.9141,582.9143,587.0806,2,2.205,2,4.1552,0,28,28,28,1,IMAGES_EXP_mp4_40/FIXES/FIX-NEGATIF-mp4/Image1.mp4,IMAGES_EXP_mp4_40/FIXES/FIX-NEGATIF-mp4/Image3.mp4,,,,,,,,,,,,,,,,,,,,,,,,,,,
,,,,,P002,001,2025-01-09_14h32.30.407,Emotion.Memoire.2024,2024.1.5,Win32,60.24096386,587.0812,597.0798,597.0799,600.963,2,2.1394,3,3.8772,0,29,29,29,1,IMAGES_EXP_mp4_40/ANIMEES/10- ANIMEES --NEGATIVES /Video10.mp4,DISTRACTEURS-40/DIST.FIXES-20/10.NÉGATIFS/Dist.fix.negatif6.mp4,,,,,,,,,,,,,,,,,,,,,,,,,,,
,,,,,P002,001,2025-01-09_14h32.30.407,Emotion.Memoire.2024,2024.1.5,Win32,60.24096386,600.9633,610.9628,610.963,614.3628,6,1.9252,1,3.3868,0,30,30,30,1,IMAGES_EXP_mp4_40/ANIMEES/11-ANIMEES --- NEUTRES /video8.mp4,IMAGES_EXP_mp4_40/ANIMEES/11-ANIMEES --- NEUTRES /video1.mp4,,,,,,,,,,,,,,,,,,,,,,,,,,,
,,,,,P002,001,2025-01-09_14h32.30.407,Emotion.Memoire.2024,2024.1.5,Win32,60.24096386,614.3631,624.3623,624.3624,627.9285,7,2.299,1,3.554,0,31,31,31,1,IMAGES_EXP_mp4_40/FIXES/FIX-NEUTRE-mp4/image6.mp4,IMAGES_EXP_mp4_40/FIXES/FIX-NEUTRE-mp4/image9.mp4,,,,,,,,,,,,,,,,,,,,,,,,,,,
,,,,,P002,001,2025-01-09_14h32.30.407,Emotion.Memoire.2024,2024.1.5,Win32,60.24096386,627.9287,637.9283,637.9284,642.6781,3,2.7984,3,4.7404,0,32,32,32,1,IMAGES_EXP_mp4_40/ANIMEES/10- ANIMEES --NEGATIVES /Video2.mp4,IMAGES_EXP_mp4_40/ANIMEES/10- ANIMEES --NEGATIVES /Video6.mp4,,,,,,,,,,,,,,,,,,,,,,,,,,,
,,,,,P002,001,2025-01-09_14h32.30.407,Emotion.Memoire.2024,2024.1.5,Win32,60.24096386,642.6788,652.6776,652.6781,656.3655,2,1.4788,3,3.6863,0,33,33,33,1,IMAGES_EXP_mp4_40/ANIMEES/10- ANIMEES --NEGATIVES /Video3.mp4,IMAGES_EXP_mp4_40/ANIMEES/11-ANIMEES --- NEUTRES /video3.mp4,,,,,,,,,,,,,,,,,,,,,,,,,,,
,,,,,P002,001,2025-01-09_14h32.30.407,Emotion.Memoire.2024,2024.1.5,Win32,60.24096386,656.3657,666.3636,666.3638,668.9938,5,1.4151,1,2.6198,0,34,34,34,1,IMAGES_EXP_mp4_40/FIXES/FIX-NEUTRE-mp4/image2.mp4,DISTRACTEURS-40/DIST.ANIMÉES-20/10.NÉGATIFS/Dist.animee.negatif7.mp4,,,,,,,,,,,,,,,,,,,,,,,,,,,
,,,,,P002,001,2025-01-09_14h32.30.407,Emotion.Memoire.2024,2024.1.5,Win32,60.24096386,668.9945,678.9934,678.9936,682.7935,5,1.3028,1,3.7912,0,35,35,35,1,IMAGES_EXP_mp4_40/FIXES/FIX-NEUTRE-mp4/image3.mp4,IMAGES_EXP_mp4_40/ANIMEES/11-ANIMEES --- NEUTRES /video9.mp4,,,,,,,,,,,,,,,,,,,,,,,,,,,
,,,,,P002,001,2025-01-09_14h32.30.407,Emotion.Memoire.2024,2024.1.5,Win32,60.24096386,682.794,692.804,692.8044,697.4088,2,1.4095,3,4.6008,0,36,36,36,1,IMAGES_EXP_mp4_40/FIXES/FIX-NEGATIF-mp4/Image9.mp4,DISTRACTEURS-40/DIST.ANIMÉES-20/10.NEUTRES/Dist.animee.neutre6.mp4,,,,,,,,,,,,,,,,,,,,,,,,,,,
,,,,,P002,001,2025-01-09_14h32.30.407,Emotion.Memoire.2024,2024.1.5,Win32,60.24096386,697.4092,707.3751,707.3758,711.2419,3,2.575,2,3.8542,0,37,37,37,1,IMAGES_EXP_mp4_40/FIXES/FIX-NEGATIF-mp4/Image7.mp4,IMAGES_EXP_mp4_40/FIXES/FIX-NEGATIF-mp4/Image8.mp4,,,,,,,,,,,,,,,,,,,,,,,,,,,
,,,,,P002,001,2025-01-09_14h32.30.407,Emotion.Memoire.2024,2024.1.5,Win32,60.24096386,711.2422,721.2418,721.2423,725.7624,3,2.1269,2,4.5189,0,38,38,38,1,IMAGES_EXP_mp4_40/ANIMEES/10- ANIMEES --NEGATIVES /Video6.mp4,IMAGES_EXP_mp4_40/FIXES/FIX-NEUTRE-mp4/image8.mp4,,,,,,,,,,,,,,,,,,,,,,,,,,,
,,,,,P002,001,2025-01-09_14h32.30.407,Emotion.Memoire.2024,2024.1.5,Win32,60.24096386,725.7626,735.7609,735.7611,738.8406,7,1.8696,1,3.0782,0,39,39,39,1,IMAGES_EXP_mp4_40/FIXES/FIX-NEUTRE-mp4/image1.mp4,IMAGES_EXP_mp4_40/ANIMEES/11-ANIMEES --- NEUTRES /video7.mp4,,,,,,,,,,,,,,,,,,,,,,,,,,,
,,,,,P002,001,2025-01-09_14h32.30.407,Emotion.Memoire.2024,2024.1.5,Win32,60.24096386,,,,,,,,,,,,,,,,,738.8412,1102.4924,space,363.6199,,,,,,,,,,,,,,,,,,,,,,
,,,,,P002,001,2025-01-09_14h32.30.407,Emotion.Memoire.2024,2024.1.5,Win32,60.24096386,,,,,,,,,,,,,,,,,,,,,,1102.4925,1123.6413,space,21.0864,,,,,,,,,,,,,,,,,
,,,,,P002,001,2025-01-09_14h32.30.407,Emotion.Memoire.2024,2024.1.5,Win32,60.24096386,,,,,,,,,,,,,,IMAGES_EXP_mp4_40/FIXES/FIX-NEGATIF-mp4/Image6.mp4,DISTRACTEURS-40/DIST.ANIMÉES-20/10.NÉGATIFS/Dist.animee.negatif10.mp4,IMAGES_EXP_mp4_40/ANIMEES/10- ANIMEES --NEGATIVES /Video1.mp4,,,,,,,,,,,1123.6466,1127.98,-0.539583312,-0.257638931,1,0,0,4.3323,Faux,0,0,0,0,1,,
,,,,,P002,001,2025-01-09_14h32.30.407,Emotion.Memoire.2024,2024.1.5,Win32,60.24096386,,,,,,,,,,,,,,IMAGES_EXP_mp4_40/FIXES/FIX-NEUTRE-mp4/image9.mp4,DISTRACTEURS-40/DIST.ANIMÉES-20/10.NEUTRES/Dist.animee.neutre3.mp4,DISTRACTEURS-40/DIST.FIXES-20/10.NÉGATIFS/Dist.fix.negatif3.mp4,,,,,,,,,,,1127.9805,1130.0577,-0.505555541,-0.29097225,1,0,0,2.0755,Faux,0,1,1,1,1,,
,,,,,P002,001,2025-01-09_14h32.30.407,Emotion.Memoire.2024,2024.1.5,Win32,60.24096386,,,,,,,,,,,,,,IMAGES_EXP_mp4_40/FIXES/FIX-NEGATIF-mp4/Image3.mp4,IMAGES_EXP_mp4_40/ANIMEES/10- ANIMEES --NEGATIVES /Video2.mp4,DISTRACTEURS-40/DIST.FIXES-20/10.NÉGATIFS/Dist.fix.negatif5.mp4,,,,,,,,,,,1130.0587,1131.9245,0.493749972,-0.293981481,1,0,0,1.8649,Vrai,0,2,2,2,1,,
,,,,,P002,001,2025-01-09_14h32.30.407,Emotion.Memoire.2024,2024.1.5,Win32,60.24096386,,,,,,,,,,,,,,IMAGES_EXP_mp4_40/FIXES/FIX-NEGATIF-mp4/Image4.mp4,IMAGES_EXP_mp4_40/FIXES/FIX-NEUTRE-mp4/image6.mp4,,,,,,,,,,,,1131.9249,1132.9745,0.529861168,-0.311574088,1,0,0,1.0488,Vrai,0,3,3,3,1,,
,,,,,P002,001,2025-01-09_14h32.30.407,Emotion.Memoire.2024,2024.1.5,Win32,60.24096386,,,,,,,,,,,,,,IMAGES_EXP_mp4_40/FIXES/FIX-NEGATIF-mp4/Image10.mp4,IMAGES_EXP_mp4_40/FIXES/FIX-NEUTRE-mp4/image2.mp4,,,,,,,,,,,,1132.9748,1134.1409,0.529861168,-0.311574088,1,0,0,1.1656,Vrai,0,4,4,4,1,,
,,,,,P002,001,2025-01-09_14h32.30.407,Emotion.Memoire.2024,2024.1.5,Win32,60.24096386,,,,,,,,,,,,,,IMAGES_EXP_mp4_40/ANIMEES/11-ANIMEES --- NEUTRES /video10.mp4,DISTRACTEURS-40/DIST.FIXES-20/10.NEUTRES /Dist.fix.neutre7.mp4,,,,,,,,,,,,1134.1412,1135.3255,-0.496759238,-0.276388875,1,0,0,1.1837,Faux,0,5,5,5,1,,
,,,,,P002,001,2025-01-09_14h32.30.407,Emotion.Memoire.2024,2024.1.5,Win32,60.24096386,,,,,,,,,,,,,,IMAGES_EXP_mp4_40/ANIMEES/10- ANIMEES --NEGATIVES /Video4.mp4,DISTRACTEURS-40/DIST.ANIMÉES-20/10.NÉGATIFS/Dist.animee.negatif4.mp4,,,,,,,,,,,,1135.3261,1136.2505,-0.465509238,-0.277314857,1,0,0,0.9234,Faux,0,6,6,6,1,,
,,,,,P002,001,2025-01-09_14h32.30.407,Emotion.Memoire.2024,2024.1.5,Win32,60.24096386,,,,,,,,,,,,,,IMAGES_EXP_mp4_40/FIXES/FIX-NEUTRE-mp4/image10.mp4,IMAGES_EXP_mp4_40/FIXES/FIX-NEGATIF-mp4/Image2.mp4,,,,,,,,,,,,1136.2511,1137.4798,0.501620399,-0.325231481,1,0,0,1.2277,Vrai,0,7,7,7,1,,
,,,,,P002,001,2025-01-09_14h32.30.407,Emotion.Memoire.2024,2024.1.5,Win32,60.24096386,,,,,,,,,,,,,,IMAGES_EXP_mp4_40/ANIMEES/10- ANIMEES --NEGATIVES /Video1.mp4,IMAGES_EXP_mp4_40/FIXES/FIX-NEGATIF-mp4/Image9.mp4,,,,,,,,,,,,1137.4805,1138.8002,0.507407436,-0.305787051,1,0,0,1.3186,Vrai,0,8,8,8,1,,
,,,,,P002,001,2025-01-09_14h32.30.407,Emotion.Memoire.2024,2024.1.5,Win32,60.24096386,,,,,,,,,,,,,,IMAGES_EXP_mp4_40/FIXES/FIX-NEUTRE-mp4/image4.mp4,DISTRACTEURS-40/DIST.FIXES-20/10.NEUTRES /Dist.fix.neutre8.mp4,,,,,,,,,,,,1138.8008,1140.2749,-0.512268526,-0.294907393,1,0,0,1.4724,Faux,0,9,9,9,1,,
,,,,,P002,001,2025-01-09_14h32.30.407,Emotion.Memoire.2024,2024.1.5,Win32,60.24096386,,,,,,,,,,,,,,IMAGES_EXP_mp4_40/ANIMEES/11-ANIMEES --- NEUTRES /video6.mp4,DISTRACTEURS-40/DIST.ANIMÉES-20/10.NÉGATIFS/Dist.animee.negatif8.mp4,,,,,,,,,,,,1140.2759,1141.691,-0.490740741,-0.303703732,1,0,0,1.4116,Faux,0,10,10,10,1,,
,,,,,P002,001,2025-01-09_14h32.30.407,Emotion.Memoire.2024,2024.1.5,Win32,60.24096386,,,,,,,,,,,,,,IMAGES_EXP_mp4_40/ANIMEES/11-ANIMEES --- NEUTRES /video9.mp4,IMAGES_EXP_mp4_40/ANIMEES/11-ANIMEES --- NEUTRES /video8.mp4,,,,,,,,,,,,1141.6923,1142.9617,0.530787009,-0.319444444,1,0,0,1.2673,Vrai,0,11,11,11,1,,
,,,,,P002,001,2025-01-09_14h32.30.407,Emotion.Memoire.2024,2024.1.5,Win32,60.24096386,,,,,,,,,,,,,,IMAGES_EXP_mp4_40/FIXES/FIX-NEUTRE-mp4/image8.mp4,IMAGES_EXP_mp4_40/ANIMEES/10- ANIMEES --NEGATIVES /Video8.mp4,,,,,,,,,,,,1142.9623,1144.3606,0.54560188,-0.288194444,1,0,0,1.3968,Vrai,0,12,12,12,1,,
,,,,,P002,001,2025-01-09_14h32.30.407,Emotion.Memoire.2024,2024.1.5,Win32,60.24096386,,,,,,,,,,,,,,IMAGES_EXP_mp4_40/ANIMEES/11-ANIMEES --- NEUTRES /video5.mp4,DISTRACTEURS-40/DIST.FIXES-20/10.NÉGATIFS/Dist.fix.negatif8.mp4,,,,,,,,,,,,1144.3611,1145.6102,-0.535648134,-0.249074088,1,0,0,1.2482,Faux,0,13,13,13,1,,
,,,,,P002,001,2025-01-09_14h32.30.407,Emotion.Memoire.2024,2024.1.5,Win32,60.24096386,,,,,,,,,,,,,,IMAGES_EXP_mp4_40/ANIMEES/11-ANIMEES --- NEUTRES /video1.mp4,DISTRACTEURS-40/DIST.FIXES-20/10.NEUTRES /Dist.fix.neutre2.mp4,,,,,,,,,,,,1145.6104,1146.6674,-0.537731489,-0.260879658,1,0,0,1.0564,Faux,0,14,14,14,1,,
,,,,,P002,001,2025-01-09_14h32.30.407,Emotion.Memoire.2024,2024.1.5,Win32,60.24096386,,,,,,,,,,,,,,IMAGES_EXP_mp4_40/ANIMEES/10- ANIMEES --NEGATIVES /Video9.mp4,DISTRACTEURS-40/DIST.ANIMÉES-20/10.NEUTRES/Dist.animee.neutre10.mp4,,,,,,,,,,,,1146.6681,1147.5072,-0.537731489,-0.260879658,1,0,0,0.8344,Faux,0,15,15,15,1,,
,,,,,P002,001,2025-01-09_14h32.30.407,Emotion.Memoire.2024,2024.1.5,Win32,60.24096386,,,,,,,,,,,,,,IMAGES_EXP_mp4_40/ANIMEES/10- ANIMEES --NEGATIVES /Video8.mp4,DISTRACTEURS-40/DIST.FIXES-20/10.NEUTRES /Dist.fix.neutre5.mp4,,,,,,,,,,,,1147.5083,1148.3461,-0.537731489,-0.260879658,1,0,0,0.8367,Faux,0,16,16,16,1,,
,,,,,P002,001,2025-01-09_14h32.30.407,Emotion.Memoire.2024,2024.1.5,Win32,60.24096386,,,,,,,,,,,,,,IMAGES_EXP_mp4_40/FIXES/FIX-NEGATIF-mp4/Image5.mp4,DISTRACTEURS-40/DIST.ANIMÉES-20/10.NEUTRES/Dist.animee.neutre1.mp4,,,,,,,,,,,,1148.347,1149.9619,-0.51921297,-0.29097225,1,0,0,1.612,Faux,0,17,17,17,1,,
,,,,,P002,001,2025-01-09_14h32.30.407,Emotion.Memoire.2024,2024.1.5,Win32,60.24096386,,,,,,,,,,,,,,IMAGES_EXP_mp4_40/ANIMEES/11-ANIMEES --- NEUTRES /video2.mp4,IMAGES_EXP_mp4_40/FIXES/FIX-NEUTRE-mp4/image5.mp4,,,,,,,,,,,,1149.9627,1151.009,0.501620399,-0.321296339,1,0,0,1.0445,Vrai,0,18,18,18,1,,
,,,,,P002,001,2025-01-09_14h32.30.407,Emotion.Memoire.2024,2024.1.5,Win32,60.24096386,,,,,,,,,,,,,,IMAGES_EXP_mp4_40/ANIMEES/10- ANIMEES --NEGATIVES /Video7.mp4,IMAGES_EXP_mp4_40/FIXES/FIX-NEUTRE-mp4/image7.mp4,,,,,,,,,,,,1151.0095,1151.9436,0.502546381,-0.320370356,1,0,0,0.933,Vrai,0,19,19,19,1,,
,,,,,P002,001,2025-01-09_14h32.30.407,Emotion.Memoire.2024,2024.1.5,Win32,60.24096386,,,,,,,,,,,,,,IMAGES_EXP_mp4_40/FIXES/FIX-NEUTRE-mp4/image5.mp4,IMAGES_EXP_mp4_40/ANIMEES/10- ANIMEES --NEGATIVES /Video10.mp4,,,,,,,,,,,,1151.9445,1152.6772,0.50462963,-0.320370356,1,0,0,0.7315,Vrai,0,20,20,20,1,,
,,,,,P002,001,2025-01-09_14h32.30.407,Emotion.Memoire.2024,2024.1.5,Win32,60.24096386,,,,,,,,,,,,,,IMAGES_EXP_mp4_40/ANIMEES/11-ANIMEES --- NEUTRES /video3.mp4,IMAGES_EXP_mp4_40/ANIMEES/10- ANIMEES --NEGATIVES /Video4.mp4,,,,,,,,,,,,1152.6778,1153.3903,0.50462963,-0.320370356,1,0,0,0.7116,Vrai,0,21,21,21,1,,
,,,,,P002,001,2025-01-09_14h32.30.407,Emotion.Memoire.2024,2024.1.5,Win32,60.24096386,,,,,,,,,,,,,,IMAGES_EXP_mp4_40/ANIMEES/10- ANIMEES --NEGATIVES /Video5.mp4,IMAGES_EXP_mp4_40/ANIMEES/10- ANIMEES --NEGATIVES /Video5.mp4,,,,,,,,,,,,1153.3915,1154.1605,0.50462963,-0.320370356,1,0,0,0.7675,Vrai,0,22,22,22,1,,
,,,,,P002,001,2025-01-09_14h32.30.407,Emotion.Memoire.2024,2024.1.5,Win32,60.24096386,,,,,,,,,,,,,,IMAGES_EXP_mp4_40/ANIMEES/11-ANIMEES --- NEUTRES /video7.mp4,IMAGES_EXP_mp4_40/ANIMEES/11-ANIMEES --- NEUTRES /video6.mp4,,,,,,,,,,,,1154.1611,1154.9568,0.50462963,-0.320370356,1,0,0,0.7944,Vrai,0,23,23,23,1,,
,,,,,P002,001,2025-01-09_14h32.30.407,Emotion.Memoire.2024,2024.1.5,Win32,60.24096386,,,,,,,,,,,,,,IMAGES_EXP_mp4_40/FIXES/FIX-NEGATIF-mp4/Image8.mp4,IMAGES_EXP_mp4_40/ANIMEES/11-ANIMEES --- NEUTRES /video5.mp4,,,,,,,,,,,,1154.9572,1155.8236,0.50462963,-0.320370356,1,0,0,0.8655,Vrai,0,24,24,24,1,,
,,,,,P002,001,2025-01-09_14h32.30.407,Emotion.Memoire.2024,2024.1.5,Win32,60.24096386,,,,,,,,,,,,,,IMAGES_EXP_mp4_40/FIXES/FIX-NEGATIF-mp4/Image2.mp4,DISTRACTEURS-40/DIST.ANIMÉES-20/10.NÉGATIFS/Dist.animee.negatif5.mp4,,,,,,,,,,,,1155.8242,1157.1066,-0.434259238,-0.285185213,1,0,0,1.2813,Faux,0,25,25,25,1,,
,,,,,P002,001,2025-01-09_14h32.30.407,Emotion.Memoire.2024,2024.1.5,Win32,60.24096386,,,,,,,,,,,,,,IMAGES_EXP_mp4_40/FIXES/FIX-NEUTRE-mp4/image7.mp4,DISTRACTEURS-40/DIST.ANIMÉES-20/10.NEUTRES/Dist.animee.neutre4.mp4,,,,,,,,,,,,1157.1069,1158.1732,-0.424537023,-0.280324088,1,0,0,1.0655,Faux,0,26,26,26,1,,
,,,,,P002,001,2025-01-09_14h32.30.407,Emotion.Memoire.2024,2024.1.5,Win32,60.24096386,,,,,,,,,,,,,,IMAGES_EXP_mp4_40/ANIMEES/11-ANIMEES --- NEUTRES /video4.mp4,DISTRACTEURS-40/DIST.FIXES-20/10.NEUTRES /Dist.fix.neutre10.mp4,,,,,,,,,,,,1158.1744,1158.9975,-0.424537023,-0.280324088,1,0,0,0.8217,Faux,0,27,27,27,1,,
,,,,,P002,001,2025-01-09_14h32.30.407,Emotion.Memoire.2024,2024.1.5,Win32,60.24096386,,,,,,,,,,,,,,IMAGES_EXP_mp4_40/FIXES/FIX-NEGATIF-mp4/Image1.mp4,IMAGES_EXP_mp4_40/FIXES/FIX-NEGATIF-mp4/Image3.mp4,,,,,,,,,,,,1158.998,1160.2118,0.428472307,-0.311574088,1,0,0,1.2106,Vrai,0,28,28,28,1,,
,,,,,P002,001,2025-01-09_14h32.30.407,Emotion.Memoire.2024,2024.1.5,Win32,60.24096386,,,,,,,,,,,,,,IMAGES_EXP_mp4_40/ANIMEES/10- ANIMEES --NEGATIVES /Video10.mp4,DISTRACTEURS-40/DIST.FIXES-20/10.NÉGATIFS/Dist.fix.negatif6.mp4,,,,,,,,,,,,1160.2125,1161.4769,-0.496759238,-0.298842607,1,0,0,1.2617,Faux,0,29,29,29,1,,
,,,,,P002,001,2025-01-09_14h32.30.407,Emotion.Memoire.2024,2024.1.5,Win32,60.24096386,,,,,,,,,,,,,,IMAGES_EXP_mp4_40/ANIMEES/11-ANIMEES --- NEUTRES /video8.mp4,IMAGES_EXP_mp4_40/ANIMEES/11-ANIMEES --- NEUTRES /video1.mp4,,,,,,,,,,,,1161.4774,1163.5926,0.551388917,-0.294907393,1,0,0,2.113,Vrai,0,30,30,30,1,,
,,,,,P002,001,2025-01-09_14h32.30.407,Emotion.Memoire.2024,2024.1.5,Win32,60.24096386,,,,,,,,,,,,,,IMAGES_EXP_mp4_40/FIXES/FIX-NEUTRE-mp4/image6.mp4,IMAGES_EXP_mp4_40/FIXES/FIX-NEUTRE-mp4/image9.mp4,,,,,,,,,,,,1163.593,1164.473,0.535648205,-0.298842607,1,0,0,0.8762,Vrai,0,31,31,31,1,,
,,,,,P002,001,2025-01-09_14h32.30.407,Emotion.Memoire.2024,2024.1.5,Win32,60.24096386,,,,,,,,,,,,,,IMAGES_EXP_mp4_40/ANIMEES/10- ANIMEES --NEGATIVES /Video2.mp4,IMAGES_EXP_mp4_40/ANIMEES/10- ANIMEES --NEGATIVES /Video6.mp4,,,,,,,,,,,,1164.4741,1165.3115,0.534722222,-0.299768519,1,0,0,0.8364,Vrai,0,32,32,32,1,,
,,,,,P002,001,2025-01-09_14h32.30.407,Emotion.Memoire.2024,2024.1.5,Win32,60.24096386,,,,,,,,,,,,,,IMAGES_EXP_mp4_40/ANIMEES/10- ANIMEES --NEGATIVES /Video3.mp4,IMAGES_EXP_mp4_40/ANIMEES/11-ANIMEES --- NEUTRES /video3.mp4,,,,,,,,,,,,1165.3123,1166.106,0.534722222,-0.299768519,1,0,0,0.7929,Vrai,0,33,33,33,1,,
,,,,,P002,001,2025-01-09_14h32.30.407,Emotion.Memoire.2024,2024.1.5,Win32,60.24096386,,,,,,,,,,,,,,IMAGES_EXP_mp4_40/FIXES/FIX-NEUTRE-mp4/image2.mp4,DISTRACTEURS-40/DIST.ANIMÉES-20/10.NÉGATIFS/Dist.animee.negatif7.mp4,,,,,,,,,,,,1166.1068,1167.3152,-0.535648134,-0.248148176,1,0,0,1.2054,Faux,0,34,34,34,1,,
,,,,,P002,001,2025-01-09_14h32.30.407,Emotion.Memoire.2024,2024.1.5,Win32,60.24096386,,,,,,,,,,,,,,IMAGES_EXP_mp4_40/FIXES/FIX-NEUTRE-mp4/image3.mp4,IMAGES_EXP_mp4_40/ANIMEES/11-ANIMEES --- NEUTRES /video9.mp4,,,,,,,,,,,,1167.3159,1168.5727,0.438194416,-0.27152782,1,0,0,1.2559,Vrai,0,35,35,35,1,,
,,,,,P002,001,2025-01-09_14h32.30.407,Emotion.Memoire.2024,2024.1.5,Win32,60.24096386,,,,,,,,,,,,,,IMAGES_EXP_mp4_40/FIXES/FIX-NEGATIF-mp4/Image9.mp4,DISTRACTEURS-40/DIST.ANIMÉES-20/10.NEUTRES/Dist.animee.neutre6.mp4,,,,,,,,,,,,1168.5743,1170.7226,-0.431250007,-0.303703732,1,0,0,2.1462,Faux,0,36,36,36,1,,
,,,,,P002,001,2025-01-09_14h32.30.407,Emotion.Memoire.2024,2024.1.5,Win32,60.24096386,,,,,,,,,,,,,,IMAGES_EXP_mp4_40/FIXES/FIX-NEGATIF-mp4/Image7.mp4,IMAGES_EXP_mp4_40/FIXES/FIX-NEGATIF-mp4/Image8.mp4,,,,,,,,,,,,1170.7238,1172.1253,0.528935185,-0.305787051,1,0,0,1.4005,Vrai,0,37,37,37,1,,
,,,,,P002,001,2025-01-09_14h32.30.407,Emotion.Memoire.2024,2024.1.5,Win32,60.24096386,,,,,,,,,,,,,,IMAGES_EXP_mp4_40/ANIMEES/10- ANIMEES --NEGATIVES /Video6.mp4,IMAGES_EXP_mp4_40/FIXES/FIX-NEUTRE-mp4/image8.mp4,,,,,,,,,,,,1172.1257,1173.1251,0.501620399,-0.286111125,1,0,0,0.9986,Vrai,0,38,38,38,1,,
,,,,,P002,001,2025-01-09_14h32.30.407,Emotion.Memoire.2024,2024.1.5,Win32,60.24096386,,,,,,,,,,,,,,IMAGES_EXP_mp4_40/FIXES/FIX-NEUTRE-mp4/image1.mp4,IMAGES_EXP_mp4_40/ANIMEES/11-ANIMEES --- NEUTRES /video7.mp4,,,,,,,,,,,,1173.1254,1174.0254,0.501620399,-0.286111125,1,0,0,0.8991,Vrai,0,39,39,39,1,,
,,,,,P002,001,2025-01-09_14h32.30.407,Emotion.Memoire.2024,2024.1.5,Win32,60.24096386,,,,,,,,,,,,,,IMAGES_EXP_mp4_40/ANIMEES/10- ANIMEES --NEGATIVES /Video1.mp4,DISTRACTEURS-40/DIST.ANIMÉES-20/10.NÉGATIFS/Dist.animee.negatif1.mp4,,,,,,,,,,,,1174.0262,1175.3595,-0.455787023,-0.319444444,1,0,0,1.329,Faux,0,40,40,40,1,,
,,,,,P002,001,2025-01-09_14h32.30.407,Emotion.Memoire.2024,2024.1.5,Win32,60.24096386,,,,,,,,,,,,,,,DISTRACTEURS-40/DIST.FIXES-20/10.NEUTRES /Dist.fix.neutre9.mp4,,,,,,,,,,,,1175.3598,1176.006,-0.455787023,-0.319444444,1,0,0,0.6442,Faux,0,41,41,41,1,,
,,,,,P002,001,2025-01-09_14h32.30.407,Emotion.Memoire.2024,2024.1.5,Win32,60.24096386,,,,,,,,,,,,,,,DISTRACTEURS-40/DIST.FIXES-20/10.NÉGATIFS/Dist.fix.negatif7.mp4,,,,,,,,,,,,1176.0068,1176.888,-0.455787023,-0.319444444,1,0,0,0.8791,Faux,0,42,42,42,1,,
,,,,,P002,001,2025-01-09_14h32.30.407,Emotion.Memoire.2024,2024.1.5,Win32,60.24096386,,,,,,,,,,,,,,,DISTRACTEURS-40/DIST.ANIMÉES-20/10.NEUTRES/Dist.animee.neutre9.mp4,,,,,,,,,,,,1176.8887,1177.9894,-0.455787023,-0.319444444,1,0,0,1.0979,Faux,0,43,43,43,1,,
,,,,,P002,001,2025-01-09_14h32.30.407,Emotion.Memoire.2024,2024.1.5,Win32,60.24096386,,,,,,,,,,,,,,,DISTRACTEURS-40/DIST.FIXES-20/10.NÉGATIFS/Dist.fix.negatif1.mp4,,,,,,,,,,,,1177.9904,1178.7769,-0.455787023,-0.319444444,1,0,0,0.785,Faux,0,44,44,44,1,,
,,,,,P002,001,2025-01-09_14h32.30.407,Emotion.Memoire.2024,2024.1.5,Win32,60.24096386,,,,,,,,,,,,,,,DISTRACTEURS-40/DIST.ANIMÉES-20/10.NÉGATIFS/Dist.animee.negatif6.mp4,,,,,,,,,,,,1178.7777,1179.5942,-0.455787023,-0.319444444,1,0,0,0.8147,Faux,0,45,45,45,1,,
,,,,,P002,001,2025-01-09_14h32.30.407,Emotion.Memoire.2024,2024.1.5,Win32,60.24096386,,,,,,,,,,,,,,,DISTRACTEURS-40/DIST.ANIMÉES-20/10.NÉGATIFS/Dist.animee.negatif2.mp4,,,,,,,,,,,,1179.5946,1180.4721,-0.455787023,-0.319444444,1,0,0,0.8749,Faux,0,46,46,46,1,,
,,,,,P002,001,2025-01-09_14h32.30.407,Emotion.Memoire.2024,2024.1.5,Win32,60.24096386,,,,,,,,,,,,,,,IMAGES_EXP_mp4_40/FIXES/FIX-NEGATIF-mp4/Image4.mp4,,,,,,,,,,,,1180.4727,1181.6915,0.45185188,-0.288888931,1,0,0,1.2127,Vrai,0,47,47,47,1,,
,,,,,P002,001,2025-01-09_14h32.30.407,Emotion.Memoire.2024,2024.1.5,Win32,60.24096386,,,,,,,,,,,,,,,IMAGES_EXP_mp4_40/ANIMEES/10- ANIMEES --NEGATIVES /Video7.mp4,,,,,,,,,,,,1181.6923,1185.4294,0.45185188,-0.288888931,1,0,0,3.7318,Vrai,0,48,48,48,1,,
,,,,,P002,001,2025-01-09_14h32.30.407,Emotion.Memoire.2024,2024.1.5,Win32,60.24096386,,,,,,,,,,,,,,,IMAGES_EXP_mp4_40/FIXES/FIX-NEUTRE-mp4/image4.mp4,,,,,,,,,,,,1185.43,1186.7056,0.47337963,-0.276388875,1,0,0,1.2737,Vrai,0,49,49,49,1,,
,,,,,P002,001,2025-01-09_14h32.30.407,Emotion.Memoire.2024,2024.1.5,Win32,60.24096386,,,,,,,,,,,,,,,DISTRACTEURS-40/DIST.FIXES-20/10.NÉGATIFS/Dist.fix.negatif5.mp4,,,,,,,,,,,,1186.7067,1188.2586,-0.440972222,-0.30277782,1,0,0,1.5487,Faux,0,50,50,50,1,,
,,,,,P002,001,2025-01-09_14h32.30.407,Emotion.Memoire.2024,2024.1.5,Win32,60.24096386,,,,,,,,,,,,,,,DISTRACTEURS-40/DIST.ANIMÉES-20/10.NÉGATIFS/Dist.animee.negatif9.mp4,,,,,,,,,,,,1188.2598,1189.0514,-0.440972222,-0.299768519,1,0,0,0.7878,Faux,0,51,51,51,1,,
,,,,,P002,001,2025-01-09_14h32.30.407,Emotion.Memoire.2024,2024.1.5,Win32,60.24096386,,,,,,,,,,,,,,,IMAGES_EXP_mp4_40/ANIMEES/11-ANIMEES --- NEUTRES /video2.mp4,,,,,,,,,,,,1189.0523,1190.3272,0.546527863,-0.288888931,1,0,0,1.2706,Vrai,0,52,52,52,1,,
,,,,,P002,001,2025-01-09_14h32.30.407,Emotion.Memoire.2024,2024.1.5,Win32,60.24096386,,,,,,,,,,,,,,,DISTRACTEURS-40/DIST.ANIMÉES-20/10.NEUTRES/Dist.animee.neutre5.mp4,,,,,,,,,,,,1190.3284,1191.7975,-0.479166667,-0.257870356,1,0,0,1.4641,Faux,0,53,53,53,1,,
,,,,,P002,001,2025-01-09_14h32.30.407,Emotion.Memoire.2024,2024.1.5,Win32,60.24096386,,,,,,,,,,,,,,,IMAGES_EXP_mp4_40/FIXES/FIX-NEGATIF-mp4/Image7.mp4,,,,,,,,,,,,1191.7996,1196.5145,0.492824131,-0.320370356,1,0,0,4.7113,Vrai,0,54,54,54,1,,
,,,,,P002,001,2025-01-09_14h32.30.407,Emotion.Memoire.2024,2024.1.5,Win32,60.24096386,,,,,,,,,,,,,,,IMAGES_EXP_mp4_40/FIXES/FIX-NEGATIF-mp4/Image6.mp4,,,,,,,,,,,,1196.5294,1198.205,0.464583362,-0.274537051,1,0,0,1.6685,Vrai,0,55,55,55,1,,
,,,,,P002,001,2025-01-09_14h32.30.407,Emotion.Memoire.2024,2024.1.5,Win32,60.24096386,,,,,,,,,,,,,,,IMAGES_EXP_mp4_40/FIXES/FIX-NEGATIF-mp4/Image5.mp4,,,,,,,,,,,,1198.2061,1198.9433,0.469444416,-0.277314857,1,0,0,0.7332,Vrai,0,56,56,56,1,,
,,,,,P002,001,2025-01-09_14h32.30.407,Emotion.Memoire.2024,2024.1.5,Win32,60.24096386,,,,,,,,,,,,,,,IMAGES_EXP_mp4_40/ANIMEES/11-ANIMEES --- NEUTRES /video10.mp4,,,,,,,,,,,,1198.9447,1199.7387,0.469444416,-0.277314857,1,0,0,0.7871,Vrai,0,57,57,57,1,,
,,,,,P002,001,2025-01-09_14h32.30.407,Emotion.Memoire.2024,2024.1.5,Win32,60.24096386,,,,,,,,,,,,,,,DISTRACTEURS-40/DIST.FIXES-20/10.NEUTRES /Dist.fix.neutre4.mp4,,,,,,,,,,,,1199.7407,1203.1046,-0.505555541,-0.285185213,1,0,0,3.3575,Faux,0,58,58,58,1,,
,,,,,P002,001,2025-01-09_14h32.30.407,Emotion.Memoire.2024,2024.1.5,Win32,60.24096386,,,,,,,,,,,,,,,IMAGES_EXP_mp4_40/ANIMEES/11-ANIMEES --- NEUTRES /video4.mp4,,,,,,,,,,,,1203.1054,1204.526,0.537731453,-0.234490783,1,0,0,1.4164,Vrai,0,59,59,59,1,,
,,,,,P002,001,2025-01-09_14h32.30.407,Emotion.Memoire.2024,2024.1.5,Win32,60.24096386,,,,,,,,,,,,,,,DISTRACTEURS-40/DIST.FIXES-20/10.NEUTRES /Dist.fix.neutre6.mp4,,,,,,,,,,,,1204.5268,1208.4581,-0.484953704,-0.294675968,1,0,0,3.9265,Faux,0,60,60,60,1,,
,,,,,P002,001,2025-01-09_14h32.30.407,Emotion.Memoire.2024,2024.1.5,Win32,60.24096386,,,,,,,,,,,,,,,DISTRACTEURS-40/DIST.FIXES-20/10.NEUTRES /Dist.fix.neutre3.mp4,,,,,,,,,,,,1208.4665,1228.9258,-0.498611097,-0.280324088,1,0,0,20.4483,Faux,0,61,61,61,1,,
,,,,,P002,001,2025-01-09_14h32.30.407,Emotion.Memoire.2024,2024.1.5,Win32,60.24096386,,,,,,,,,,,,,,,DISTRACTEURS-40/DIST.FIXES-20/10.NÉGATIFS/Dist.fix.negatif10.mp4,,,,,,,,,,,,1228.9293,1231.5566,-0.493750007,-0.289120356,1,0,0,2.6184,Faux,0,62,62,62,1,,
,,,,,P002,001,2025-01-09_14h32.30.407,Emotion.Memoire.2024,2024.1.5,Win32,60.24096386,,,,,,,,,,,,,,,IMAGES_EXP_mp4_40/ANIMEES/10- ANIMEES --NEGATIVES /Video1.mp4,,,,,,,,,,,,1231.5571,1232.9973,0.484953704,-0.307638875,1,0,0,1.4362,Vrai,0,63,63,63,1,,
,,,,,P002,001,2025-01-09_14h32.30.407,Emotion.Memoire.2024,2024.1.5,Win32,60.24096386,,,,,,,,,,,,,,,DISTRACTEURS-40/DIST.FIXES-20/10.NÉGATIFS/Dist.fix.negatif9.mp4,,,,,,,,,,,,1232.9978,1234.4031,-0.517129616,-0.274537051,1,0,0,1.4025,Faux,0,64,64,64,1,,
,,,,,P002,001,2025-01-09_14h32.30.407,Emotion.Memoire.2024,2024.1.5,Win32,60.24096386,,,,,,,,,,,,,,,DISTRACTEURS-40/DIST.FIXES-20/10.NÉGATIFS/Dist.fix.negatif2.mp4,,,,,,,,,,,,1234.4036,1236.2328,-0.48796297,-0.299768519,1,0,0,1.8249,Faux,0,65,65,65,1,,
,,,,,P002,001,2025-01-09_14h32.30.407,Emotion.Memoire.2024,2024.1.5,Win32,60.24096386,,,,,,,,,,,,,,,IMAGES_EXP_mp4_40/FIXES/FIX-NEUTRE-mp4/image10.mp4,,,,,,,,,,,,1236.2334,1237.4237,0.446064843,-0.251157407,1,0,0,1.182,Vrai,0,66,66,66,1,,
,,,,,P002,001,2025-01-09_14h32.30.407,Emotion.Memoire.2024,2024.1.5,Win32,60.24096386,,,,,,,,,,,,,,,IMAGES_EXP_mp4_40/FIXES/FIX-NEGATIF-mp4/Image1.mp4,,,,,,,,,,,,1237.4247,1238.5706,0.497685185,-0.274537051,1,0,0,1.1408,Vrai,0,67,67,67,1,,
,,,,,P002,001,2025-01-09_14h32.30.407,Emotion.Memoire.2024,2024.1.5,Win32,60.24096386,,,,,,,,,,,,,,,IMAGES_EXP_mp4_40/ANIMEES/10- ANIMEES --NEGATIVES /Video3.mp4,,,,,,,,,,,,1238.5716,1239.5711,0.495833362,-0.288194444,1,0,0,0.9948,Vrai,0,68,68,68,1,,
,,,,,P002,001,2025-01-09_14h32.30.407,Emotion.Memoire.2024,2024.1.5,Win32,60.24096386,,,,,,,,,,,,,,,DISTRACTEURS-40/DIST.FIXES-20/10.NEUTRES /Dist.fix.neutre1.mp4,,,,,,,,,,,,1239.5719,1240.8697,-0.453703704,-0.286111125,1,0,0,1.294,Faux,0,69,69,69,1,,
,,,,,P002,001,2025-01-09_14h32.30.407,Emotion.Memoire.2024,2024.1.5,Win32,60.24096386,,,,,,,,,,,,,,,DISTRACTEURS-40/DIST.FIXES-20/10.NÉGATIFS/Dist.fix.negatif3.mp4,,,,,,,,,,,,1240.8703,1242.1371,-0.453703704,-0.286111125,1,0,0,1.2611,Faux,0,70,70,70,1,,
,,,,,P002,001,2025-01-09_14h32.30.407,Emotion.Memoire.2024,2024.1.5,Win32,60.24096386,,,,,,,,,,,,,,,IMAGES_EXP_mp4_40/FIXES/FIX-NEUTRE-mp4/image3.mp4,,,,,,,,,,,,1242.1378,1243.1531,0.556249972,-0.279398176,1,0,0,1.0084,Vrai,0,71,71,71,1,,
,,,,,P002,001,2025-01-09_14h32.30.407,Emotion.Memoire.2024,2024.1.5,Win32,60.24096386,,,,,,,,,,,,,,,IMAGES_EXP_mp4_40/FIXES/FIX-NEGATIF-mp4/Image10.mp4,,,,,,,,,,,,1243.1541,1244.0571,0.556249972,-0.279398176,1,0,0,0.8972,Vrai,0,72,72,72,1,,
,,,,,P002,001,2025-01-09_14h32.30.407,Emotion.Memoire.2024,2024.1.5,Win32,60.24096386,,,,,,,,,,,,,,,IMAGES_EXP_mp4_40/FIXES/FIX-NEUTRE-mp4/image1.mp4,,,,,,,,,,,,1244.0578,1245.1549,0.556249972,-0.279398176,1,0,0,1.0938,Vrai,0,73,73,73,1,,
,,,,,P002,001,2025-01-09_14h32.30.407,Emotion.Memoire.2024,2024.1.5,Win32,60.24096386,,,,,,,,,,,,,,,DISTRACTEURS-40/DIST.ANIMÉES-20/10.NEUTRES/Dist.animee.neutre8.mp4,,,,,,,,,,,,1245.1553,1246.586,-0.462500007,-0.280324088,1,0,0,1.4258,Faux,0,74,74,74,1,,
,,,,,P002,001,2025-01-09_14h32.30.407,Emotion.Memoire.2024,2024.1.5,Win32,60.24096386,,,,,,,,,,,,,,,DISTRACTEURS-40/DIST.FIXES-20/10.NÉGATIFS/Dist.fix.negatif4.mp4,,,,,,,,,,,,1246.5867,1247.6726,-0.464583326,-0.280324088,1,0,0,1.0839,Faux,0,75,75,75,1,,
,,,,,P002,001,2025-01-09_14h32.30.407,Emotion.Memoire.2024,2024.1.5,Win32,60.24096386,,,,,,,,,,,,,,,DISTRACTEURS-40/DIST.ANIMÉES-20/10.NÉGATIFS/Dist.animee.negatif3.mp4,,,,,,,,,,,,1247.6739,1249.2747,-0.464583326,-0.280324088,1,0,0,1.5964,Faux,0,76,76,76,1,,
,,,,,P002,001,2025-01-09_14h32.30.407,Emotion.Memoire.2024,2024.1.5,Win32,60.24096386,,,,,,,,,,,,,,,DISTRACTEURS-40/DIST.ANIMÉES-20/10.NEUTRES/Dist.animee.neutre2.mp4,,,,,,,,,,,,1249.2761,1250.5694,-0.464583326,-0.280324088,1,0,0,1.2852,Faux,0,77,77,77,1,,
,,,,,P002,001,2025-01-09_14h32.30.407,Emotion.Memoire.2024,2024.1.5,Win32,60.24096386,,,,,,,,,,,,,,,IMAGES_EXP_mp4_40/ANIMEES/10- ANIMEES --NEGATIVES /Video9.mp4,,,,,,,,,,,,1250.5702,1252.1376,0.495833362,-0.310648176,1,0,0,1.5574,Vrai,0,78,78,78,1,,
,,,,,P002,001,2025-01-09_14h32.30.407,Emotion.Memoire.2024,2024.1.5,Win32,60.24096386,,,,,,,,,,,,,,,DISTRACTEURS-40/DIST.ANIMÉES-20/10.NEUTRES/Dist.animee.neutre7.mp4,,,,,,,,,,,,1252.1387,1253.2247,-0.489814794,-0.272453732,1,0,0,1.08,Faux,0,79,79,79,1,,
,,,,,P002,001,2025-01-09_14h32.30.407,Emotion.Memoire.2024,2024.1.5,Win32,60.24096386,,,,,,,,,,,,,,,,,,,,,,,,,,,,,,,,,,,,,,,,,1253.2286,1268.2237
