Consigne.started,Consigne.stopped,Key_resp1.keys,Key_resp1.rt,Key_resp1.duration,participant,session,date,expName,psychopyVersion,OS,frameRate,IMAGES.started,IMAGES.stopped,SAM.started,SAM.stopped,Plaisir.response,Plaisir.rt,EVEIL.response,EVEIL.rt,trials.thisRepN,trials.thisTrialN,trials.thisN,trials.thisIndex,trials.ran,ImageFile,ImagesDistracteursFile,Test,Calcul.started,Calcul.stopped,Key_response.keys,Key_response.rt,Key_response.duration,Consigne_reco.started,Consigne_reco.stopped,key_resp_reconn.keys,key_resp_reconn.rt,key_resp_reconn.duration,DISTRACTEURS.started,DISTRACTEURS.stopped,mouse.x,mouse.y,mouse.leftButton,mouse.midButton,mouse.rightButton,mouse.time,mouse.clicked_name,trials_2.thisRepN,trials_2.thisTrialN,trials_2.thisN,trials_2.thisIndex,trials_2.ran,MERCI.started,MERCI.stopped
0.0002,0.8762,space,0.726,,P021,001,2025-04-10_22h45.41.604,Emotion.Memoire.2024,2024.1.5,Win32,59.88023952,,,,,,,,,,,,,,,,,,,,,,,,,,,,,,,,,,,,,,,,,,
,,,,,P021,001,2025-04-10_22h45.41.604,Emotion.Memoire.2024,2024.1.5,Win32,59.88023952,0.8898,10.8852,10.9231,23.084,3,7.6756,2,12.1571,0,0,0,0,1,IMAGES_EXP_mp4_40/FIXES/FIX-NEGATIF-mp4/Image6.mp4,DISTRACTEURS-40/DIST.ANIMÉES-20/10.NÉGATIFS/Dist.animee.negatif10.mp4,IMAGES_EXP_mp4_40/ANIMEES/10- ANIMEES --NEGATIVES /Video1.mp4,,,,,,,,,,,,,,,,,,,,,,,,,,
,,,,,P021,001,2025-04-10_22h45.41.604,Emotion.Memoire.2024,2024.1.5,Win32,59.88023952,23.0852,33.0806,33.0808,43.6003,7,5.5194,1,10.5161,0,1,1,1,1,IMAGES_EXP_mp4_40/FIXES/FIX-NEUTRE-mp4/image9.mp4,DISTRACTEURS-40/DIST.ANIMÉES-20/10.NEUTRES/Dist.animee.neutre3.mp4,DISTRACTEURS-40/DIST.FIXES-20/10.NÉGATIFS/Dist.fix.negatif3.mp4,,,,,,,,,,,,,,,,,,,,,,,,,,
,,,,,P021,001,2025-04-10_22h45.41.604,Emotion.Memoire.2024,2024.1.5,Win32,59.88023952,43.6006,53.5952,53.5959,72.8926,1,2.6249,6,19.2873,0,2,2,2,1,IMAGES_EXP_mp4_40/FIXES/FIX-NEGATIF-mp4/Image3.mp4,IMAGES_EXP_mp4_40/ANIMEES/10- ANIMEES --NEGATIVES /Video2.mp4,DISTRACTEURS-40/DIST.FIXES-20/10.NÉGATIFS/Dist.fix.negatif5.mp4,,,,,,,,,,,,,,,,,,,,,,,,,,
,,,,,P021,001,2025-04-10_22h45.41.604,Emotion.Memoire.2024,2024.1.5,Win32,59.88023952,72.8937,82.8821,82.8827,90.1234,1,2.3004,9,7.2339,0,3,3,3,1,IMAGES_EXP_mp4_40/FIXES/FIX-NEGATIF-mp4/Image4.mp4,IMAGES_EXP_mp4_40/FIXES/FIX-NEUTRE-mp4/image6.mp4,,,,,,,,,,,,,,,,,,,,,,,,,,,
,,,,,P021,001,2025-04-10_22h45.41.604,Emotion.Memoire.2024,2024.1.5,Win32,59.88023952,90.1243,100.1223,100.124,124.5198,3,14.4124,2,24.3866,0,4,4,4,1,IMAGES_EXP_mp4_40/FIXES/FIX-NEGATIF-mp4/Image10.mp4,IMAGES_EXP_mp4_40/FIXES/FIX-NEUTRE-mp4/image2.mp4,,,,,,,,,,,,,,,,,,,,,,,,,,,
,,,,,P021,001,2025-04-10_22h45.41.604,Emotion.Memoire.2024,2024.1.5,Win32,59.88023952,124.5209,134.5226,134.523,143.9495,8,5.4353,1,9.4249,0,5,5,5,1,IMAGES_EXP_mp4_40/ANIMEES/11-ANIMEES --- NEUTRES /video10.mp4,DISTRACTEURS-40/DIST.FIXES-20/10.NEUTRES /Dist.fix.neutre7.mp4,,,,,,,,,,,,,,,,,,,,,,,,,,,
,,,,,P021,001,2025-04-10_22h45.41.604,Emotion.Memoire.2024,2024.1.5,Win32,59.88023952,143.9498,153.9538,153.9545,161.0637,1,2.1691,6,7.0996,0,6,6,6,1,IMAGES_EXP_mp4_40/ANIMEES/10- ANIMEES --NEGATIVES /Video4.mp4,DISTRACTEURS-40/DIST.ANIMÉES-20/10.NÉGATIFS/Dist.animee.negatif4.mp4,,,,,,,,,,,,,,,,,,,,,,,,,,,
,,,,,P021,001,2025-04-10_22h45.41.604,Emotion.Memoire.2024,2024.1.5,Win32,59.88023952,161.0643,171.0628,171.0634,178.214,5,3.4038,1,7.1481,0,7,7,7,1,IMAGES_EXP_mp4_40/FIXES/FIX-NEUTRE-mp4/image10.mp4,IMAGES_EXP_mp4_40/FIXES/FIX-NEGATIF-mp4/Image2.mp4,,,,,,,,,,,,,,,,,,,,,,,,,,,
,,,,,P021,001,2025-04-10_22h45.41.604,Emotion.Memoire.2024,2024.1.5,Win32,59.88023952,178.2144,188.2175,188.2181,203.2417,2,3.9994,6,15.0185,0,8,8,8,1,IMAGES_EXP_mp4_40/ANIMEES/10- ANIMEES --NEGATIVES /Video1.mp4,IMAGES_EXP_mp4_40/FIXES/FIX-NEGATIF-mp4/Image9.mp4,,,,,,,,,,,,,,,,,,,,,,,,,,,
,,,,,P021,001,2025-04-10_22h45.41.604,Emotion.Memoire.2024,2024.1.5,Win32,59.88023952,203.2439,213.2403,213.2415,226.4058,7,5.4889,3,13.1565,0,9,9,9,1,IMAGES_EXP_mp4_40/FIXES/FIX-NEUTRE-mp4/image4.mp4,DISTRACTEURS-40/DIST.FIXES-20/10.NEUTRES /Dist.fix.neutre8.mp4,,,,,,,,,,,,,,,,,,,,,,,,,,,
,,,,,P021,001,2025-04-10_22h45.41.604,Emotion.Memoire.2024,2024.1.5,Win32,59.88023952,226.4067,236.4045,236.406,243.9863,7,3.9388,1,7.5722,0,10,10,10,1,IMAGES_EXP_mp4_40/ANIMEES/11-ANIMEES --- NEUTRES /video6.mp4,DISTRACTEURS-40/DIST.ANIMÉES-20/10.NÉGATIFS/Dist.animee.negatif8.mp4,,,,,,,,,,,,,,,,,,,,,,,,,,,
,,,,,P021,001,2025-04-10_22h45.41.604,Emotion.Memoire.2024,2024.1.5,Win32,59.88023952,243.9872,253.9812,253.9825,263.0172,5,4.36,2,9.0258,0,11,11,11,1,IMAGES_EXP_mp4_40/ANIMEES/11-ANIMEES --- NEUTRES /video9.mp4,IMAGES_EXP_mp4_40/ANIMEES/11-ANIMEES --- NEUTRES /video8.mp4,,,,,,,,,,,,,,,,,,,,,,,,,,,
,,,,,P021,001,2025-04-10_22h45.41.604,Emotion.Memoire.2024,2024.1.5,Win32,59.88023952,263.0179,273.0161,273.0165,281.5482,7,4.1812,1,8.5231,0,12,12,12,1,IMAGES_EXP_mp4_40/FIXES/FIX-NEUTRE-mp4/image8.mp4,IMAGES_EXP_mp4_40/ANIMEES/10- ANIMEES --NEGATIVES /Video8.mp4,,,,,,,,,,,,,,,,,,,,,,,,,,,
,,,,,P021,001,2025-04-10_22h45.41.604,Emotion.Memoire.2024,2024.1.5,Win32,59.88023952,281.5491,291.5527,291.5535,300.0292,4,4.1681,2,8.4722,0,13,13,13,1,IMAGES_EXP_mp4_40/ANIMEES/11-ANIMEES --- NEUTRES /video5.mp4,DISTRACTEURS-40/DIST.FIXES-20/10.NÉGATIFS/Dist.fix.negatif8.mp4,,,,,,,,,,,,,,,,,,,,,,,,,,,
,,,,,P021,001,2025-04-10_22h45.41.604,Emotion.Memoire.2024,2024.1.5,Win32,59.88023952,300.0298,310.0275,310.0281,321.4298,8,7.1134,2,11.3999,0,14,14,14,1,IMAGES_EXP_mp4_40/ANIMEES/11-ANIMEES --- NEUTRES /video1.mp4,DISTRACTEURS-40/DIST.FIXES-20/10.NEUTRES /Dist.fix.neutre2.mp4,,,,,,,,,,,,,,,,,,,,,,,,,,,
,,,,,P021,001,2025-04-10_22h45.41.604,Emotion.Memoire.2024,2024.1.5,Win32,59.88023952,321.4303,330.8108,330.8111,340.2573,2,3.5948,3,9.4394,0,15,15,15,1,IMAGES_EXP_mp4_40/ANIMEES/10- ANIMEES --NEGATIVES /Video9.mp4,DISTRACTEURS-40/DIST.ANIMÉES-20/10.NEUTRES/Dist.animee.neutre10.mp4,,,,,,,,,,,,,,,,,,,,,,,,,,,
,,,,,P021,001,2025-04-10_22h45.41.604,Emotion.Memoire.2024,2024.1.5,Win32,59.88023952,340.2581,349.2056,349.2059,358.9378,4,5.8905,3,9.7232,0,16,16,16,1,IMAGES_EXP_mp4_40/ANIMEES/10- ANIMEES --NEGATIVES /Video8.mp4,DISTRACTEURS-40/DIST.FIXES-20/10.NEUTRES /Dist.fix.neutre5.mp4,,,,,,,,,,,,,,,,,,,,,,,,,,,
,,,,,P021,001,2025-04-10_22h45.41.604,Emotion.Memoire.2024,2024.1.5,Win32,59.88023952,358.9385,368.9369,368.9379,381.3683,1,7.8231,7,12.4229,0,17,17,17,1,IMAGES_EXP_mp4_40/FIXES/FIX-NEGATIF-mp4/Image5.mp4,DISTRACTEURS-40/DIST.ANIMÉES-20/10.NEUTRES/Dist.animee.neutre1.mp4,,,,,,,,,,,,,,,,,,,,,,,,,,,
,,,,,P021,001,2025-04-10_22h45.41.604,Emotion.Memoire.2024,2024.1.5,Win32,59.88023952,381.3691,391.3669,391.3681,399.6825,7,5.2085,1,8.3116,0,18,18,18,1,IMAGES_EXP_mp4_40/ANIMEES/11-ANIMEES --- NEUTRES /video2.mp4,IMAGES_EXP_mp4_40/FIXES/FIX-NEUTRE-mp4/image5.mp4,,,,,,,,,,,,,,,,,,,,,,,,,,,
,,,,,P021,001,2025-04-10_22h45.41.604,Emotion.Memoire.2024,2024.1.5,Win32,59.88023952,399.6831,409.6815,409.683,422.3628,3,5.1552,5,12.6711,0,19,19,19,1,IMAGES_EXP_mp4_40/ANIMEES/10- ANIMEES --NEGATIVES /Video7.mp4,IMAGES_EXP_mp4_40/FIXES/FIX-NEUTRE-mp4/image7.mp4,,,,,,,,,,,,,,,,,,,,,,,,,,,
,,,,,P021,001,2025-04-10_22h45.41.604,Emotion.Memoire.2024,2024.1.5,Win32,59.88023952,422.3637,432.3613,432.3626,443.7787,9,7.8405,1,11.4067,0,20,20,20,1,IMAGES_EXP_mp4_40/FIXES/FIX-NEUTRE-mp4/image5.mp4,IMAGES_EXP_mp4_40/ANIMEES/10- ANIMEES --NEGATIVES /Video10.mp4,,,,,,,,,,,,,,,,,,,,,,,,,,,
,,,,,P021,001,2025-04-10_22h45.41.604,Emotion.Memoire.2024,2024.1.5,Win32,59.88023952,443.7792,453.7757,453.7767,470.6731,6,13.0055,2,16.8898,0,21,21,21,1,IMAGES_EXP_mp4_40/ANIMEES/11-ANIMEES --- NEUTRES /video3.mp4,IMAGES_EXP_mp4_40/ANIMEES/10- ANIMEES --NEGATIVES /Video4.mp4,,,,,,,,,,,,,,,,,,,,,,,,,,,
,,,,,P021,001,2025-04-10_22h45.41.604,Emotion.Memoire.2024,2024.1.5,Win32,59.88023952,470.6741,480.6722,480.6738,486.121,1,3.9549,9,5.4402,0,22,22,22,1,IMAGES_EXP_mp4_40/ANIMEES/10- ANIMEES --NEGATIVES /Video5.mp4,IMAGES_EXP_mp4_40/ANIMEES/10- ANIMEES --NEGATIVES /Video5.mp4,,,,,,,,,,,,,,,,,,,,,,,,,,,
,,,,,P021,001,2025-04-10_22h45.41.604,Emotion.Memoire.2024,2024.1.5,Win32,59.88023952,486.1217,496.1192,496.1203,503.3026,7,1.6245,5,7.1737,0,23,23,23,1,IMAGES_EXP_mp4_40/ANIMEES/11-ANIMEES --- NEUTRES /video7.mp4,IMAGES_EXP_mp4_40/ANIMEES/11-ANIMEES --- NEUTRES /video6.mp4,,,,,,,,,,,,,,,,,,,,,,,,,,,
,,,,,P021,001,2025-04-10_22h45.41.604,Emotion.Memoire.2024,2024.1.5,Win32,59.88023952,503.3033,513.3014,513.3025,527.4324,4,9.3043,2,14.1204,0,24,24,24,1,IMAGES_EXP_mp4_40/FIXES/FIX-NEGATIF-mp4/Image8.mp4,IMAGES_EXP_mp4_40/ANIMEES/11-ANIMEES --- NEUTRES /video5.mp4,,,,,,,,,,,,,,,,,,,,,,,,,,,
,,,,,P021,001,2025-04-10_22h45.41.604,Emotion.Memoire.2024,2024.1.5,Win32,59.88023952,527.4332,537.4217,537.4222,541.3645,1,1.1677,6,3.9349,0,25,25,25,1,IMAGES_EXP_mp4_40/FIXES/FIX-NEGATIF-mp4/Image2.mp4,DISTRACTEURS-40/DIST.ANIMÉES-20/10.NÉGATIFS/Dist.animee.negatif5.mp4,,,,,,,,,,,,,,,,,,,,,,,,,,,
,,,,,P021,001,2025-04-10_22h45.41.604,Emotion.Memoire.2024,2024.1.5,Win32,59.88023952,541.3658,551.3621,551.3625,557.4816,7,1.8408,5,6.1161,0,26,26,26,1,IMAGES_EXP_mp4_40/FIXES/FIX-NEUTRE-mp4/image7.mp4,DISTRACTEURS-40/DIST.ANIMÉES-20/10.NEUTRES/Dist.animee.neutre4.mp4,,,,,,,,,,,,,,,,,,,,,,,,,,,
,,,,,P021,001,2025-04-10_22h45.41.604,Emotion.Memoire.2024,2024.1.5,Win32,59.88023952,557.4837,567.4773,567.4785,573.2431,9,3.5119,1,5.7591,0,27,27,27,1,IMAGES_EXP_mp4_40/ANIMEES/11-ANIMEES --- NEUTRES /video4.mp4,DISTRACTEURS-40/DIST.FIXES-20/10.NEUTRES /Dist.fix.neutre10.mp4,,,,,,,,,,,,,,,,,,,,,,,,,,,
,,,,,P021,001,2025-04-10_22h45.41.604,Emotion.Memoire.2024,2024.1.5,Win32,59.88023952,573.2437,583.2503,583.2509,587.991,2,2.1459,2,4.7318,0,28,28,28,1,IMAGES_EXP_mp4_40/FIXES/FIX-NEGATIF-mp4/Image1.mp4,IMAGES_EXP_mp4_40/FIXES/FIX-NEGATIF-mp4/Image3.mp4,,,,,,,,,,,,,,,,,,,,,,,,,,,
,,,,,P021,001,2025-04-10_22h45.41.604,Emotion.Memoire.2024,2024.1.5,Win32,59.88023952,587.9917,597.9816,597.9821,604.3761,5,2.631,2,6.3915,0,29,29,29,1,IMAGES_EXP_mp4_40/ANIMEES/10- ANIMEES --NEGATIVES /Video10.mp4,DISTRACTEURS-40/DIST.FIXES-20/10.NÉGATIFS/Dist.fix.negatif6.mp4,,,,,,,,,,,,,,,,,,,,,,,,,,,
,,,,,P021,001,2025-04-10_22h45.41.604,Emotion.Memoire.2024,2024.1.5,Win32,59.88023952,604.3766,614.38,614.3803,619.42,9,3.6394,2,5.0304,0,30,30,30,1,IMAGES_EXP_mp4_40/ANIMEES/11-ANIMEES --- NEUTRES /video8.mp4,IMAGES_EXP_mp4_40/ANIMEES/11-ANIMEES --- NEUTRES /video1.mp4,,,,,,,,,,,,,,,,,,,,,,,,,,,
,,,,,P021,001,2025-04-10_22h45.41.604,Emotion.Memoire.2024,2024.1.5,Win32,59.88023952,619.4204,629.4256,629.426,632.87,9,1.6692,5,3.435,0,31,31,31,1,IMAGES_EXP_mp4_40/FIXES/FIX-NEUTRE-mp4/image6.mp4,IMAGES_EXP_mp4_40/FIXES/FIX-NEUTRE-mp4/image9.mp4,,,,,,,,,,,,,,,,,,,,,,,,,,,
,,,,,P021,001,2025-04-10_22h45.41.604,Emotion.Memoire.2024,2024.1.5,Win32,59.88023952,632.8707,642.8665,642.8674,646.4338,1,1.8058,9,3.5558,0,32,32,32,1,IMAGES_EXP_mp4_40/ANIMEES/10- ANIMEES --NEGATIVES /Video2.mp4,IMAGES_EXP_mp4_40/ANIMEES/10- ANIMEES --NEGATIVES /Video6.mp4,,,,,,,,,,,,,,,,,,,,,,,,,,,
,,,,,P021,001,2025-04-10_22h45.41.604,Emotion.Memoire.2024,2024.1.5,Win32,59.88023952,646.4346,656.4124,656.4131,659.4982,1,2.3425,1,3.0765,0,33,33,33,1,IMAGES_EXP_mp4_40/ANIMEES/10- ANIMEES --NEGATIVES /Video3.mp4,IMAGES_EXP_mp4_40/ANIMEES/11-ANIMEES --- NEUTRES /video3.mp4,,,,,,,,,,,,,,,,,,,,,,,,,,,
,,,,,P021,001,2025-04-10_22h45.41.604,Emotion.Memoire.2024,2024.1.5,Win32,59.88023952,659.499,669.4969,669.4976,676.8467,7,3.7399,1,7.3422,0,34,34,34,1,IMAGES_EXP_mp4_40/FIXES/FIX-NEUTRE-mp4/image2.mp4,DISTRACTEURS-40/DIST.ANIMÉES-20/10.NÉGATIFS/Dist.animee.negatif7.mp4,,,,,,,,,,,,,,,,,,,,,,,,,,,
,,,,,P021,001,2025-04-10_22h45.41.604,Emotion.Memoire.2024,2024.1.5,Win32,59.88023952,676.8484,686.8479,686.8484,689.3943,6,1.2119,1,2.5394,0,35,35,35,1,IMAGES_EXP_mp4_40/FIXES/FIX-NEUTRE-mp4/image3.mp4,IMAGES_EXP_mp4_40/ANIMEES/11-ANIMEES --- NEUTRES /video9.mp4,,,,,,,,,,,,,,,,,,,,,,,,,,,
,,,,,P021,001,2025-04-10_22h45.41.604,Emotion.Memoire.2024,2024.1.5,Win32,59.88023952,689.3953,699.4182,699.4195,706.944,3,2.4317,5,7.5224,0,36,36,36,1,IMAGES_EXP_mp4_40/FIXES/FIX-NEGATIF-mp4/Image9.mp4,DISTRACTEURS-40/DIST.ANIMÉES-20/10.NEUTRES/Dist.animee.neutre6.mp4,,,,,,,,,,,,,,,,,,,,,,,,,,,
,,,,,P021,001,2025-04-10_22h45.41.604,Emotion.Memoire.2024,2024.1.5,Win32,59.88023952,706.9446,716.9805,716.998,731.5729,4,9.0647,2,14.5632,0,37,37,37,1,IMAGES_EXP_mp4_40/FIXES/FIX-NEGATIF-mp4/Image7.mp4,IMAGES_EXP_mp4_40/FIXES/FIX-NEGATIF-mp4/Image8.mp4,,,,,,,,,,,,,,,,,,,,,,,,,,,
,,,,,P021,001,2025-04-10_22h45.41.604,Emotion.Memoire.2024,2024.1.5,Win32,59.88023952,731.5763,741.5709,741.6079,754.269,6,6.676,4,12.6519,0,38,38,38,1,IMAGES_EXP_mp4_40/ANIMEES/10- ANIMEES --NEGATIVES /Video6.mp4,IMAGES_EXP_mp4_40/FIXES/FIX-NEUTRE-mp4/image8.mp4,,,,,,,,,,,,,,,,,,,,,,,,,,,
,,,,,P021,001,2025-04-10_22h45.41.604,Emotion.Memoire.2024,2024.1.5,Win32,59.88023952,754.2697,764.2679,764.3059,767.0016,5,1.5218,1,2.6876,0,39,39,39,1,IMAGES_EXP_mp4_40/FIXES/FIX-NEUTRE-mp4/image1.mp4,IMAGES_EXP_mp4_40/ANIMEES/11-ANIMEES --- NEUTRES /video7.mp4,,,,,,,,,,,,,,,,,,,,,,,,,,,
,,,,,P021,001,2025-04-10_22h45.41.604,Emotion.Memoire.2024,2024.1.5,Win32,59.88023952,,,,,,,,,,,,,,,,,767.0425,1276.2095,space,509.0807,0.0112,,,,,,,,,,,,,,,,,,,,,
,,,,,P021,001,2025-04-10_22h45.41.604,Emotion.Memoire.2024,2024.1.5,Win32,59.88023952,,,,,,,,,,,,,,,,,,,,,,1276.2097,1277.867,space,1.5087,,,,,,,,,,,,,,,,,
,,,,,P021,001,2025-04-10_22h45.41.604,Emotion.Memoire.2024,2024.1.5,Win32,59.88023952,,,,,,,,,,,,,,IMAGES_EXP_mp4_40/FIXES/FIX-NEGATIF-mp4/Image6.mp4,DISTRACTEURS-40/DIST.ANIMÉES-20/10.NÉGATIFS/Dist.animee.negatif10.mp4,IMAGES_EXP_mp4_40/ANIMEES/10- ANIMEES --NEGATIVES /Video1.mp4,,,,,,,,,,,1277.921,1285.7706,-0.495370356,-0.280555556,1,0,0,7.8406,Faux,0,0,0,0,1,,
,,,,,P021,001,2025-04-10_22h45.41.604,Emotion.Memoire.2024,2024.1.5,Win32,59.88023952,,,,,,,,,,,,,,IMAGES_EXP_mp4_40/FIXES/FIX-NEUTRE-mp4/image9.mp4,DISTRACTEURS-40/DIST.ANIMÉES-20/10.NEUTRES/Dist.animee.neutre3.mp4,DISTRACTEURS-40/DIST.FIXES-20/10.NÉGATIFS/Dist.fix.negatif3.mp4,,,,,,,,,,,1285.772,1301.0475,-0.479629601,-0.289814843,1,0,0,15.2301,Faux,0,1,1,1,1,,
,,,,,P021,001,2025-04-10_22h45.41.604,Emotion.Memoire.2024,2024.1.5,Win32,59.88023952,,,,,,,,,,,,,,IMAGES_EXP_mp4_40/FIXES/FIX-NEGATIF-mp4/Image3.mp4,IMAGES_EXP_mp4_40/ANIMEES/10- ANIMEES --NEGATIVES /Video2.mp4,DISTRACTEURS-40/DIST.FIXES-20/10.NÉGATIFS/Dist.fix.negatif5.mp4,,,,,,,,,,,1301.0506,1308.9126,0.48148151,-0.290740797,1,0,0,7.8241,Vrai,0,2,2,2,1,,
,,,,,P021,001,2025-04-10_22h45.41.604,Emotion.Memoire.2024,2024.1.5,Win32,59.88023952,,,,,,,,,,,,,,IMAGES_EXP_mp4_40/FIXES/FIX-NEGATIF-mp4/Image4.mp4,IMAGES_EXP_mp4_40/FIXES/FIX-NEUTRE-mp4/image6.mp4,,,,,,,,,,,,1308.9141,1316.4699,0.48148151,-0.290740797,1,0,0,7.5538,Vrai,0,3,3,3,1,,
,,,,,P021,001,2025-04-10_22h45.41.604,Emotion.Memoire.2024,2024.1.5,Win32,59.88023952,,,,,,,,,,,,,,IMAGES_EXP_mp4_40/FIXES/FIX-NEGATIF-mp4/Image10.mp4,IMAGES_EXP_mp4_40/FIXES/FIX-NEUTRE-mp4/image2.mp4,,,,,,,,,,,,1316.471,1324.002,0.48148151,-0.290740797,1,0,0,7.5286,Vrai,0,4,4,4,1,,
,,,,,P021,001,2025-04-10_22h45.41.604,Emotion.Memoire.2024,2024.1.5,Win32,59.88023952,,,,,,,,,,,,,,IMAGES_EXP_mp4_40/ANIMEES/11-ANIMEES --- NEUTRES /video10.mp4,DISTRACTEURS-40/DIST.FIXES-20/10.NEUTRES /Dist.fix.neutre7.mp4,,,,,,,,,,,,1324.0034,1331.4934,-0.51851849,-0.277777778,1,0,0,7.4495,Faux,0,5,5,5,1,,
,,,,,P021,001,2025-04-10_22h45.41.604,Emotion.Memoire.2024,2024.1.5,Win32,59.88023952,,,,,,,,,,,,,,IMAGES_EXP_mp4_40/ANIMEES/10- ANIMEES --NEGATIVES /Video4.mp4,DISTRACTEURS-40/DIST.ANIMÉES-20/10.NÉGATIFS/Dist.animee.negatif4.mp4,,,,,,,,,,,,1331.4959,1340.0917,-0.51851849,-0.277777778,1,0,0,8.5869,Faux,0,6,6,6,1,,
,,,,,P021,001,2025-04-10_22h45.41.604,Emotion.Memoire.2024,2024.1.5,Win32,59.88023952,,,,,,,,,,,,,,IMAGES_EXP_mp4_40/FIXES/FIX-NEUTRE-mp4/image10.mp4,IMAGES_EXP_mp4_40/FIXES/FIX-NEGATIF-mp4/Image2.mp4,,,,,,,,,,,,1340.0939,1348.6409,0.476851908,-0.297222222,1,0,0,8.5407,Vrai,0,7,7,7,1,,
,,,,,P021,001,2025-04-10_22h45.41.604,Emotion.Memoire.2024,2024.1.5,Win32,59.88023952,,,,,,,,,,,,,,IMAGES_EXP_mp4_40/ANIMEES/10- ANIMEES --NEGATIVES /Video1.mp4,IMAGES_EXP_mp4_40/FIXES/FIX-NEGATIF-mp4/Image9.mp4,,,,,,,,,,,,1348.6435,1356.3624,0.485185242,-0.278703732,1,0,0,7.6753,Vrai,0,8,8,8,1,,
,,,,,P021,001,2025-04-10_22h45.41.604,Emotion.Memoire.2024,2024.1.5,Win32,59.88023952,,,,,,,,,,,,,,IMAGES_EXP_mp4_40/FIXES/FIX-NEUTRE-mp4/image4.mp4,DISTRACTEURS-40/DIST.FIXES-20/10.NEUTRES /Dist.fix.neutre8.mp4,,,,,,,,,,,,1356.3639,1364.4197,-0.49351849,-0.257407464,1,0,0,8.0392,Faux,0,9,9,9,1,,
,,,,,P021,001,2025-04-10_22h45.41.604,Emotion.Memoire.2024,2024.1.5,Win32,59.88023952,,,,,,,,,,,,,,IMAGES_EXP_mp4_40/ANIMEES/11-ANIMEES --- NEUTRES /video6.mp4,DISTRACTEURS-40/DIST.ANIMÉES-20/10.NÉGATIFS/Dist.animee.negatif8.mp4,,,,,,,,,,,,1364.4374,1372.4709,-0.510185157,-0.286111111,1,0,0,8.0022,Faux,0,10,10,10,1,,
,,,,,P021,001,2025-04-10_22h45.41.604,Emotion.Memoire.2024,2024.1.5,Win32,59.88023952,,,,,,,,,,,,,,IMAGES_EXP_mp4_40/ANIMEES/11-ANIMEES --- NEUTRES /video9.mp4,IMAGES_EXP_mp4_40/ANIMEES/11-ANIMEES --- NEUTRES /video8.mp4,,,,,,,,,,,,1372.4728,1380.3445,0.489814843,-0.312963019,1,0,0,7.86,Vrai,0,11,11,11,1,,
,,,,,P021,001,2025-04-10_22h45.41.604,Emotion.Memoire.2024,2024.1.5,Win32,59.88023952,,,,,,,,,,,,,,IMAGES_EXP_mp4_40/FIXES/FIX-NEUTRE-mp4/image8.mp4,IMAGES_EXP_mp4_40/ANIMEES/10- ANIMEES --NEGATIVES /Video8.mp4,,,,,,,,,,,,1380.3451,1388.0724,0.489814843,-0.312963019,1,0,0,7.7181,Vrai,0,12,12,12,1,,
,,,,,P021,001,2025-04-10_22h45.41.604,Emotion.Memoire.2024,2024.1.5,Win32,59.88023952,,,,,,,,,,,,,,IMAGES_EXP_mp4_40/ANIMEES/11-ANIMEES --- NEUTRES /video5.mp4,DISTRACTEURS-40/DIST.FIXES-20/10.NÉGATIFS/Dist.fix.negatif8.mp4,,,,,,,,,,,,1388.0735,1395.784,-0.512037023,-0.277777778,1,0,0,7.7012,Faux,0,13,13,13,1,,
,,,,,P021,001,2025-04-10_22h45.41.604,Emotion.Memoire.2024,2024.1.5,Win32,59.88023952,,,,,,,,,,,,,,IMAGES_EXP_mp4_40/ANIMEES/11-ANIMEES --- NEUTRES /video1.mp4,DISTRACTEURS-40/DIST.FIXES-20/10.NEUTRES /Dist.fix.neutre2.mp4,,,,,,,,,,,,1395.7863,1403.5422,-0.512037023,-0.277777778,1,0,0,7.7495,Faux,0,14,14,14,1,,
,,,,,P021,001,2025-04-10_22h45.41.604,Emotion.Memoire.2024,2024.1.5,Win32,59.88023952,,,,,,,,,,,,,,IMAGES_EXP_mp4_40/ANIMEES/10- ANIMEES --NEGATIVES /Video9.mp4,DISTRACTEURS-40/DIST.ANIMÉES-20/10.NEUTRES/Dist.animee.neutre10.mp4,,,,,,,,,,,,1403.5454,1411.134,-0.512037023,-0.277777778,1,0,0,7.5654,Faux,0,15,15,15,1,,
,,,,,P021,001,2025-04-10_22h45.41.604,Emotion.Memoire.2024,2024.1.5,Win32,59.88023952,,,,,,,,,,,,,,IMAGES_EXP_mp4_40/ANIMEES/10- ANIMEES --NEGATIVES /Video8.mp4,DISTRACTEURS-40/DIST.FIXES-20/10.NEUTRES /Dist.fix.neutre5.mp4,,,,,,,,,,,,1411.136,1418.8288,-0.512037023,-0.277777778,1,0,0,7.6838,Faux,0,16,16,16,1,,
,,,,,P021,001,2025-04-10_22h45.41.604,Emotion.Memoire.2024,2024.1.5,Win32,59.88023952,,,,,,,,,,,,,,IMAGES_EXP_mp4_40/FIXES/FIX-NEGATIF-mp4/Image5.mp4,DISTRACTEURS-40/DIST.ANIMÉES-20/10.NEUTRES/Dist.animee.neutre1.mp4,,,,,,,,,,,,1418.8308,1426.5361,-0.512037023,-0.277777778,1,0,0,7.6887,Faux,0,17,17,17,1,,
,,,,,P021,001,2025-04-10_22h45.41.604,Emotion.Memoire.2024,2024.1.5,Win32,59.88023952,,,,,,,,,,,,,,IMAGES_EXP_mp4_40/ANIMEES/11-ANIMEES --- NEUTRES /video2.mp4,IMAGES_EXP_mp4_40/FIXES/FIX-NEUTRE-mp4/image5.mp4,,,,,,,,,,,,1426.5382,1434.0626,0.475925954,-0.262963019,1,0,0,7.5074,Vrai,0,18,18,18,1,,
,,,,,P021,001,2025-04-10_22h45.41.604,Emotion.Memoire.2024,2024.1.5,Win32,59.88023952,,,,,,,,,,,,,,IMAGES_EXP_mp4_40/ANIMEES/10- ANIMEES --NEGATIVES /Video7.mp4,IMAGES_EXP_mp4_40/FIXES/FIX-NEUTRE-mp4/image7.mp4,,,,,,,,,,,,1434.0646,1442.2531,0.475925954,-0.262963019,1,0,0,8.1775,Vrai,0,19,19,19,1,,
,,,,,P021,001,2025-04-10_22h45.41.604,Emotion.Memoire.2024,2024.1.5,Win32,59.88023952,,,,,,,,,,,,,,IMAGES_EXP_mp4_40/FIXES/FIX-NEUTRE-mp4/image5.mp4,IMAGES_EXP_mp4_40/ANIMEES/10- ANIMEES --NEGATIVES /Video10.mp4,,,,,,,,,,,,1442.2544,1450.5269,0.475925954,-0.262963019,1,0,0,8.2278,Vrai,0,20,20,20,1,,
,,,,,P021,001,2025-04-10_22h45.41.604,Emotion.Memoire.2024,2024.1.5,Win32,59.88023952,,,,,,,,,,,,,,IMAGES_EXP_mp4_40/ANIMEES/11-ANIMEES --- NEUTRES /video3.mp4,IMAGES_EXP_mp4_40/ANIMEES/10- ANIMEES --NEGATIVES /Video4.mp4,,,,,,,,,,,,1450.528,1458.4599,0.475925954,-0.262963019,1,0,0,7.9203,Vrai,0,21,21,21,1,,
,,,,,P021,001,2025-04-10_22h45.41.604,Emotion.Memoire.2024,2024.1.5,Win32,59.88023952,,,,,,,,,,,,,,IMAGES_EXP_mp4_40/ANIMEES/10- ANIMEES --NEGATIVES /Video5.mp4,IMAGES_EXP_mp4_40/ANIMEES/10- ANIMEES --NEGATIVES /Video5.mp4,,,,,,,,,,,,1458.4619,1467.0251,0.5,-0.253703732,1,0,0,8.5183,Vrai,0,22,22,22,1,,
,,,,,P021,001,2025-04-10_22h45.41.604,Emotion.Memoire.2024,2024.1.5,Win32,59.88023952,,,,,,,,,,,,,,IMAGES_EXP_mp4_40/ANIMEES/11-ANIMEES --- NEUTRES /video7.mp4,IMAGES_EXP_mp4_40/ANIMEES/11-ANIMEES --- NEUTRES /video6.mp4,,,,,,,,,,,,1467.0267,1474.7567,0.5,-0.253703732,1,0,0,7.7214,Vrai,0,23,23,23,1,,
,,,,,P021,001,2025-04-10_22h45.41.604,Emotion.Memoire.2024,2024.1.5,Win32,59.88023952,,,,,,,,,,,,,,IMAGES_EXP_mp4_40/FIXES/FIX-NEGATIF-mp4/Image8.mp4,IMAGES_EXP_mp4_40/ANIMEES/11-ANIMEES --- NEUTRES /video5.mp4,,,,,,,,,,,,1474.7589,1482.4893,0.5,-0.253703732,1,0,0,7.7225,Vrai,0,24,24,24,1,,
,,,,,P021,001,2025-04-10_22h45.41.604,Emotion.Memoire.2024,2024.1.5,Win32,59.88023952,,,,,,,,,,,,,,IMAGES_EXP_mp4_40/FIXES/FIX-NEGATIF-mp4/Image2.mp4,DISTRACTEURS-40/DIST.ANIMÉES-20/10.NÉGATIFS/Dist.animee.negatif5.mp4,,,,,,,,,,,,1482.4913,1490.0227,-0.500925912,-0.268518575,1,0,0,7.4832,Faux,0,25,25,25,1,,
,,,,,P021,001,2025-04-10_22h45.41.604,Emotion.Memoire.2024,2024.1.5,Win32,59.88023952,,,,,,,,,,,,,,IMAGES_EXP_mp4_40/FIXES/FIX-NEUTRE-mp4/image7.mp4,DISTRACTEURS-40/DIST.ANIMÉES-20/10.NEUTRES/Dist.animee.neutre4.mp4,,,,,,,,,,,,1490.0243,1497.6543,-0.500925912,-0.268518575,1,0,0,7.6209,Faux,0,26,26,26,1,,
,,,,,P021,001,2025-04-10_22h45.41.604,Emotion.Memoire.2024,2024.1.5,Win32,59.88023952,,,,,,,,,,,,,,IMAGES_EXP_mp4_40/ANIMEES/11-ANIMEES --- NEUTRES /video4.mp4,DISTRACTEURS-40/DIST.FIXES-20/10.NEUTRES /Dist.fix.neutre10.mp4,,,,,,,,,,,,1497.6563,1505.2732,-0.500925912,-0.268518575,1,0,0,7.5723,Faux,0,27,27,27,1,,
,,,,,P021,001,2025-04-10_22h45.41.604,Emotion.Memoire.2024,2024.1.5,Win32,59.88023952,,,,,,,,,,,,,,IMAGES_EXP_mp4_40/FIXES/FIX-NEGATIF-mp4/Image1.mp4,IMAGES_EXP_mp4_40/FIXES/FIX-NEGATIF-mp4/Image3.mp4,,,,,,,,,,,,1505.2786,1512.7852,0.509259288,-0.288888889,1,0,0,7.4724,Vrai,0,28,28,28,1,,
,,,,,P021,001,2025-04-10_22h45.41.604,Emotion.Memoire.2024,2024.1.5,Win32,59.88023952,,,,,,,,,,,,,,IMAGES_EXP_mp4_40/ANIMEES/10- ANIMEES --NEGATIVES /Video10.mp4,DISTRACTEURS-40/DIST.FIXES-20/10.NÉGATIFS/Dist.fix.negatif6.mp4,,,,,,,,,,,,1512.788,1520.4685,-0.500925912,-0.275925954,1,0,0,7.6711,Faux,0,29,29,29,1,,
,,,,,P021,001,2025-04-10_22h45.41.604,Emotion.Memoire.2024,2024.1.5,Win32,59.88023952,,,,,,,,,,,,,,IMAGES_EXP_mp4_40/ANIMEES/11-ANIMEES --- NEUTRES /video8.mp4,IMAGES_EXP_mp4_40/ANIMEES/11-ANIMEES --- NEUTRES /video1.mp4,,,,,,,,,,,,1520.4698,1528.8501,0.494444444,-0.288888889,1,0,0,8.3672,Vrai,0,30,30,30,1,,
,,,,,P021,001,2025-04-10_22h45.41.604,Emotion.Memoire.2024,2024.1.5,Win32,59.88023952,,,,,,,,,,,,,,IMAGES_EXP_mp4_40/FIXES/FIX-NEUTRE-mp4/image6.mp4,IMAGES_EXP_mp4_40/FIXES/FIX-NEUTRE-mp4/image9.mp4,,,,,,,,,,,,1528.8525,1538.1052,0.580555556,-0.3,1,0,0,9.2123,Vrai,0,31,31,31,1,,
,,,,,P021,001,2025-04-10_22h45.41.604,Emotion.Memoire.2024,2024.1.5,Win32,59.88023952,,,,,,,,,,,,,,IMAGES_EXP_mp4_40/ANIMEES/10- ANIMEES --NEGATIVES /Video2.mp4,IMAGES_EXP_mp4_40/ANIMEES/10- ANIMEES --NEGATIVES /Video6.mp4,,,,,,,,,,,,1538.1075,1546.2309,0.580555556,-0.3,1,0,0,8.1179,Vrai,0,32,32,32,1,,
,,,,,P021,001,2025-04-10_22h45.41.604,Emotion.Memoire.2024,2024.1.5,Win32,59.88023952,,,,,,,,,,,,,,IMAGES_EXP_mp4_40/ANIMEES/10- ANIMEES --NEGATIVES /Video3.mp4,IMAGES_EXP_mp4_40/ANIMEES/11-ANIMEES --- NEUTRES /video3.mp4,,,,,,,,,,,,1546.2332,1553.9138,0.505555556,-0.291666667,1,0,0,7.677,Vrai,0,33,33,33,1,,
,,,,,P021,001,2025-04-10_22h45.41.604,Emotion.Memoire.2024,2024.1.5,Win32,59.88023952,,,,,,,,,,,,,,IMAGES_EXP_mp4_40/FIXES/FIX-NEUTRE-mp4/image2.mp4,DISTRACTEURS-40/DIST.ANIMÉES-20/10.NÉGATIFS/Dist.animee.negatif7.mp4,,,,,,,,,,,,1553.9158,1562.0626,-0.504629601,-0.278703732,1,0,0,8.1426,Faux,0,34,34,34,1,,
,,,,,P021,001,2025-04-10_22h45.41.604,Emotion.Memoire.2024,2024.1.5,Win32,59.88023952,,,,,,,,,,,,,,IMAGES_EXP_mp4_40/FIXES/FIX-NEUTRE-mp4/image3.mp4,IMAGES_EXP_mp4_40/ANIMEES/11-ANIMEES --- NEUTRES /video9.mp4,,,,,,,,,,,,1562.0639,1570.2951,0.489814843,-0.285185242,1,0,0,8.2257,Vrai,0,35,35,35,1,,
,,,,,P021,001,2025-04-10_22h45.41.604,Emotion.Memoire.2024,2024.1.5,Win32,59.88023952,,,,,,,,,,,,,,IMAGES_EXP_mp4_40/FIXES/FIX-NEGATIF-mp4/Image9.mp4,DISTRACTEURS-40/DIST.ANIMÉES-20/10.NEUTRES/Dist.animee.neutre6.mp4,,,,,,,,,,,,1570.2986,1579.9344,-0.491666667,-0.287963019,1,0,0,9.6257,Faux,0,36,36,36,1,,
,,,,,P021,001,2025-04-10_22h45.41.604,Emotion.Memoire.2024,2024.1.5,Win32,59.88023952,,,,,,,,,,,,,,IMAGES_EXP_mp4_40/FIXES/FIX-NEGATIF-mp4/Image7.mp4,IMAGES_EXP_mp4_40/FIXES/FIX-NEGATIF-mp4/Image8.mp4,,,,,,,,,,,,1579.9362,1588.725,0.424074131,-0.282407464,1,0,0,8.7497,Vrai,0,37,37,37,1,,
,,,,,P021,001,2025-04-10_22h45.41.604,Emotion.Memoire.2024,2024.1.5,Win32,59.88023952,,,,,,,,,,,,,,IMAGES_EXP_mp4_40/ANIMEES/10- ANIMEES --NEGATIVES /Video6.mp4,IMAGES_EXP_mp4_40/FIXES/FIX-NEUTRE-mp4/image8.mp4,,,,,,,,,,,,1588.7261,1597.0409,0.458333333,-0.286111111,1,0,0,8.3079,Vrai,0,38,38,38,1,,
,,,,,P021,001,2025-04-10_22h45.41.604,Emotion.Memoire.2024,2024.1.5,Win32,59.88023952,,,,,,,,,,,,,,IMAGES_EXP_mp4_40/FIXES/FIX-NEUTRE-mp4/image1.mp4,IMAGES_EXP_mp4_40/ANIMEES/11-ANIMEES --- NEUTRES /video7.mp4,,,,,,,,,,,,1597.0421,1605.1904,0.458333333,-0.286111111,1,0,0,8.1442,Vrai,0,39,39,39,1,,
,,,,,P021,001,2025-04-10_22h45.41.604,Emotion.Memoire.2024,2024.1.5,Win32,59.88023952,,,,,,,,,,,,,,IMAGES_EXP_mp4_40/ANIMEES/10- ANIMEES --NEGATIVES /Video1.mp4,DISTRACTEURS-40/DIST.ANIMÉES-20/10.NÉGATIFS/Dist.animee.negatif1.mp4,,,,,,,,,,,,1605.1924,1614.7886,-0.448148134,-0.280555556,1,0,0,9.5541,Faux,0,40,40,40,1,,
,,,,,P021,001,2025-04-10_22h45.41.604,Emotion.Memoire.2024,2024.1.5,Win32,59.88023952,,,,,,,,,,,,,,,DISTRACTEURS-40/DIST.FIXES-20/10.NEUTRES /Dist.fix.neutre9.mp4,,,,,,,,,,,,1614.7913,1626.3875,-0.547222222,-0.318518575,1,0,0,11.5917,Faux,0,41,41,41,1,,
,,,,,P021,001,2025-04-10_22h45.41.604,Emotion.Memoire.2024,2024.1.5,Win32,59.88023952,,,,,,,,,,,,,,,DISTRACTEURS-40/DIST.FIXES-20/10.NÉGATIFS/Dist.fix.negatif7.mp4,,,,,,,,,,,,1626.3908,1635.795,-0.514814801,-0.283333333,1,0,0,9.3625,Faux,0,42,42,42,1,,
,,,,,P021,001,2025-04-10_22h45.41.604,Emotion.Memoire.2024,2024.1.5,Win32,59.88023952,,,,,,,,,,,,,,,DISTRACTEURS-40/DIST.ANIMÉES-20/10.NEUTRES/Dist.animee.neutre9.mp4,,,,,,,,,,,,1635.7978,1643.5089,-0.508333333,-0.304629686,1,0,0,7.6983,Faux,0,43,43,43,1,,
,,,,,P021,001,2025-04-10_22h45.41.604,Emotion.Memoire.2024,2024.1.5,Win32,59.88023952,,,,,,,,,,,,,,,DISTRACTEURS-40/DIST.FIXES-20/10.NÉGATIFS/Dist.fix.negatif1.mp4,,,,,,,,,,,,1643.5104,1652.8836,-0.525925912,-0.285185242,1,0,0,9.3339,Faux,0,44,44,44,1,,
,,,,,P021,001,2025-04-10_22h45.41.604,Emotion.Memoire.2024,2024.1.5,Win32,59.88023952,,,,,,,,,,,,,,,DISTRACTEURS-40/DIST.ANIMÉES-20/10.NÉGATIFS/Dist.animee.negatif6.mp4,,,,,,,,,,,,1652.8856,1662.4187,-0.574074067,-0.290740797,1,0,0,9.5222,Faux,0,45,45,45,1,,
,,,,,P021,001,2025-04-10_22h45.41.604,Emotion.Memoire.2024,2024.1.5,Win32,59.88023952,,,,,,,,,,,,,,,DISTRACTEURS-40/DIST.ANIMÉES-20/10.NÉGATIFS/Dist.animee.negatif2.mp4,,,,,,,,,,,,1662.4212,1671.2815,-0.529629601,-0.308333333,1,0,0,8.8497,Faux,0,46,46,46,1,,
,,,,,P021,001,2025-04-10_22h45.41.604,Emotion.Memoire.2024,2024.1.5,Win32,59.88023952,,,,,,,,,,,,,,,IMAGES_EXP_mp4_40/FIXES/FIX-NEGATIF-mp4/Image4.mp4,,,,,,,,,,,,1671.2845,1685.0124,0.494444444,-0.292592621,1,0,0,13.7125,Vrai,0,47,47,47,1,,
,,,,,P021,001,2025-04-10_22h45.41.604,Emotion.Memoire.2024,2024.1.5,Win32,59.88023952,,,,,,,,,,,,,,,IMAGES_EXP_mp4_40/ANIMEES/10- ANIMEES --NEGATIVES /Video7.mp4,,,,,,,,,,,,1685.0145,1693.7292,0.494444444,-0.262037065,1,0,0,8.7054,Vrai,0,48,48,48,1,,
,,,,,P021,001,2025-04-10_22h45.41.604,Emotion.Memoire.2024,2024.1.5,Win32,59.88023952,,,,,,,,,,,,,,,IMAGES_EXP_mp4_40/FIXES/FIX-NEUTRE-mp4/image4.mp4,,,,,,,,,,,,1693.7312,1701.302,0.494444444,-0.262037065,1,0,0,7.5266,Vrai,0,49,49,49,1,,
,,,,,P021,001,2025-04-10_22h45.41.604,Emotion.Memoire.2024,2024.1.5,Win32,59.88023952,,,,,,,,,,,,,,,DISTRACTEURS-40/DIST.FIXES-20/10.NÉGATIFS/Dist.fix.negatif5.mp4,,,,,,,,,,,,1701.3029,1710.1897,-0.525,-0.329629686,1,0,0,8.8794,Faux,0,50,50,50,1,,
,,,,,P021,001,2025-04-10_22h45.41.604,Emotion.Memoire.2024,2024.1.5,Win32,59.88023952,,,,,,,,,,,,,,,DISTRACTEURS-40/DIST.ANIMÉES-20/10.NÉGATIFS/Dist.animee.negatif9.mp4,,,,,,,,,,,,1710.1942,1718.1085,-0.548148134,-0.265740797,1,0,0,7.9042,Faux,0,51,51,51,1,,
,,,,,P021,001,2025-04-10_22h45.41.604,Emotion.Memoire.2024,2024.1.5,Win32,59.88023952,,,,,,,,,,,,,,,IMAGES_EXP_mp4_40/ANIMEES/11-ANIMEES --- NEUTRES /video2.mp4,,,,,,,,,,,,1718.1105,1727.6753,0.517592621,-0.268518575,1,0,0,9.5567,Vrai,0,52,52,52,1,,
,,,,,P021,001,2025-04-10_22h45.41.604,Emotion.Memoire.2024,2024.1.5,Win32,59.88023952,,,,,,,,,,,,,,,DISTRACTEURS-40/DIST.ANIMÉES-20/10.NEUTRES/Dist.animee.neutre5.mp4,,,,,,,,,,,,1727.6763,1735.5964,-0.480555556,-0.275,1,0,0,7.9159,Faux,0,53,53,53,1,,
,,,,,P021,001,2025-04-10_22h45.41.604,Emotion.Memoire.2024,2024.1.5,Win32,59.88023952,,,,,,,,,,,,,,,IMAGES_EXP_mp4_40/FIXES/FIX-NEGATIF-mp4/Image7.mp4,,,,,,,,,,,,1735.5991,1744.6918,0.455555556,-0.284259288,1,0,0,9.0874,Vrai,0,54,54,54,1,,
,,,,,P021,001,2025-04-10_22h45.41.604,Emotion.Memoire.2024,2024.1.5,Win32,59.88023952,,,,,,,,,,,,,,,IMAGES_EXP_mp4_40/FIXES/FIX-NEGATIF-mp4/Image6.mp4,,,,,,,,,,,,1744.6947,1752.9039,0.455555556,-0.284259288,1,0,0,8.2023,Vrai,0,55,55,55,1,,
,,,,,P021,001,2025-04-10_22h45.41.604,Emotion.Memoire.2024,2024.1.5,Win32,59.88023952,,,,,,,,,,,,,,,IMAGES_EXP_mp4_40/FIXES/FIX-NEGATIF-mp4/Image5.mp4,,,,,,,,,,,,1752.9066,1762.5187,0.455555556,-0.284259288,1,0,0,9.6035,Vrai,0,56,56,56,1,,
,,,,,P021,001,2025-04-10_22h45.41.604,Emotion.Memoire.2024,2024.1.5,Win32,59.88023952,,,,,,,,,,,,,,,IMAGES_EXP_mp4_40/ANIMEES/11-ANIMEES --- NEUTRES /video10.mp4,,,,,,,,,,,,1762.522,1771.8512,0.455555556,-0.284259288,1,0,0,9.3167,Vrai,0,57,57,57,1,,
,,,,,P021,001,2025-04-10_22h45.41.604,Emotion.Memoire.2024,2024.1.5,Win32,59.88023952,,,,,,,,,,,,,,,DISTRACTEURS-40/DIST.FIXES-20/10.NEUTRES /Dist.fix.neutre4.mp4,,,,,,,,,,,,1771.8534,1779.9753,-0.497222222,-0.254629686,1,0,0,8.1094,Faux,0,58,58,58,1,,
,,,,,P021,001,2025-04-10_22h45.41.604,Emotion.Memoire.2024,2024.1.5,Win32,59.88023952,,,,,,,,,,,,,,,IMAGES_EXP_mp4_40/ANIMEES/11-ANIMEES --- NEUTRES /video4.mp4,,,,,,,,,,,,1779.9764,1787.7671,0.493518575,-0.292592621,1,0,0,7.7792,Vrai,0,59,59,59,1,,
,,,,,P021,001,2025-04-10_22h45.41.604,Emotion.Memoire.2024,2024.1.5,Win32,59.88023952,,,,,,,,,,,,,,,DISTRACTEURS-40/DIST.FIXES-20/10.NEUTRES /Dist.fix.neutre6.mp4,,,,,,,,,,,,1787.7694,1796.0618,-0.495370356,-0.270370399,1,0,0,8.287,Faux,0,60,60,60,1,,
,,,,,P021,001,2025-04-10_22h45.41.604,Emotion.Memoire.2024,2024.1.5,Win32,59.88023952,,,,,,,,,,,,,,,DISTRACTEURS-40/DIST.FIXES-20/10.NEUTRES /Dist.fix.neutre3.mp4,,,,,,,,,,,,1796.0757,1804.5008,-0.538888889,-0.277777778,1,0,0,8.3944,Faux,0,61,61,61,1,,
,,,,,P021,001,2025-04-10_22h45.41.604,Emotion.Memoire.2024,2024.1.5,Win32,59.88023952,,,,,,,,,,,,,,,DISTRACTEURS-40/DIST.FIXES-20/10.NÉGATIFS/Dist.fix.negatif10.mp4,,,,,,,,,,,,1804.5113,1812.255,-0.538888889,-0.277777778,1,0,0,7.727,Faux,0,62,62,62,1,,
,,,,,P021,001,2025-04-10_22h45.41.604,Emotion.Memoire.2024,2024.1.5,Win32,59.88023952,,,,,,,,,,,,,,,IMAGES_EXP_mp4_40/ANIMEES/10- ANIMEES --NEGATIVES /Video1.mp4,,,,,,,,,,,,1812.257,1820.0572,0.476851908,-0.262037065,1,0,0,7.7784,Vrai,0,63,63,63,1,,
,,,,,P021,001,2025-04-10_22h45.41.604,Emotion.Memoire.2024,2024.1.5,Win32,59.88023952,,,,,,,,,,,,,,,DISTRACTEURS-40/DIST.FIXES-20/10.NÉGATIFS/Dist.fix.negatif9.mp4,,,,,,,,,,,,1820.0663,1827.5772,-0.523148134,-0.310185242,1,0,0,7.5034,Faux,0,64,64,64,1,,
,,,,,P021,001,2025-04-10_22h45.41.604,Emotion.Memoire.2024,2024.1.5,Win32,59.88023952,,,,,,,,,,,,,,,DISTRACTEURS-40/DIST.FIXES-20/10.NÉGATIFS/Dist.fix.negatif2.mp4,,,,,,,,,,,,1827.5793,1881.454,-1.073504274,0.483475775,1,0,0,27.8766,Vrai,0,65,65,65,1,,
,,,,,P021,001,2025-04-10_22h45.41.604,Emotion.Memoire.2024,2024.1.5,Win32,59.88023952,,,,,,,,,,,,,,,IMAGES_EXP_mp4_40/FIXES/FIX-NEUTRE-mp4/image10.mp4,,,,,,,,,,,,1881.4553,1882.5029,0.339601174,-0.217378952,1,0,0,0.5437,Vrai,0,66,66,66,1,,
,,,,,P021,001,2025-04-10_22h45.41.604,Emotion.Memoire.2024,2024.1.5,Win32,59.88023952,,,,,,,,,,,,,,,IMAGES_EXP_mp4_40/FIXES/FIX-NEGATIF-mp4/Image1.mp4,,,,,,,,,,,,1882.5037,1883.0028,0.534472969,-0.203703738,1,0,0,0.4908,Vrai,0,67,67,67,1,,
,,,,,P021,001,2025-04-10_22h45.41.604,Emotion.Memoire.2024,2024.1.5,Win32,59.88023952,,,,,,,,,,,,,,,IMAGES_EXP_mp4_40/ANIMEES/10- ANIMEES --NEGATIVES /Video3.mp4,,,,,,,,,,,,1883.0044,1883.4199,0.534472969,-0.203703738,1,0,0,0.378,Vrai,0,68,68,68,1,,
,,,,,P021,001,2025-04-10_22h45.41.604,Emotion.Memoire.2024,2024.1.5,Win32,59.88023952,,,,,,,,,,,,,,,DISTRACTEURS-40/DIST.FIXES-20/10.NEUTRES /Dist.fix.neutre1.mp4,,,,,,,,,,,,1883.4206,1883.6863,0.534472969,-0.203703738,1,0,0,0.2611,Vrai,0,69,69,69,1,,
,,,,,P021,001,2025-04-10_22h45.41.604,Emotion.Memoire.2024,2024.1.5,Win32,59.88023952,,,,,,,,,,,,,,,DISTRACTEURS-40/DIST.FIXES-20/10.NÉGATIFS/Dist.fix.negatif3.mp4,,,,,,,,,,,,1883.6875,1883.9025,0.534472969,-0.203703738,1,0,0,0.2108,Vrai,0,70,70,70,1,,
,,,,,P021,001,2025-04-10_22h45.41.604,Emotion.Memoire.2024,2024.1.5,Win32,59.88023952,,,,,,,,,,,,,,,IMAGES_EXP_mp4_40/FIXES/FIX-NEUTRE-mp4/image3.mp4,,,,,,,,,,,,1883.9035,1884.5189,0.534472969,-0.203703738,1,0,0,0.6146,Vrai,0,71,71,71,1,,
,,,,,P021,001,2025-04-10_22h45.41.604,Emotion.Memoire.2024,2024.1.5,Win32,59.88023952,,,,,,,,,,,,,,,IMAGES_EXP_mp4_40/FIXES/FIX-NEGATIF-mp4/Image10.mp4,,,,,,,,,,,,1884.5194,1885.019,0.534472969,-0.203703738,1,0,0,0.4981,Vrai,0,72,72,72,1,,
,,,,,P021,001,2025-04-10_22h45.41.604,Emotion.Memoire.2024,2024.1.5,Win32,59.88023952,,,,,,,,,,,,,,,IMAGES_EXP_mp4_40/FIXES/FIX-NEUTRE-mp4/image1.mp4,,,,,,,,,,,,1885.0195,1885.2191,0.534472969,-0.203703738,1,0,0,0.197,Vrai,0,73,73,73,1,,
,,,,,P021,001,2025-04-10_22h45.41.604,Emotion.Memoire.2024,2024.1.5,Win32,59.88023952,,,,,,,,,,,,,,,DISTRACTEURS-40/DIST.ANIMÉES-20/10.NEUTRES/Dist.animee.neutre8.mp4,,,,,,,,,,,,1885.2197,1885.386,0.534472969,-0.203703738,1,0,0,0.1645,Vrai,0,74,74,74,1,,
,,,,,P021,001,2025-04-10_22h45.41.604,Emotion.Memoire.2024,2024.1.5,Win32,59.88023952,,,,,,,,,,,,,,,DISTRACTEURS-40/DIST.FIXES-20/10.NÉGATIFS/Dist.fix.negatif4.mp4,,,,,,,,,,,,1885.3869,1885.669,0.534472969,-0.203703738,1,0,0,0.2801,Vrai,0,75,75,75,1,,
,,,,,P021,001,2025-04-10_22h45.41.604,Emotion.Memoire.2024,2024.1.5,Win32,59.88023952,,,,,,,,,,,,,,,DISTRACTEURS-40/DIST.ANIMÉES-20/10.NÉGATIFS/Dist.animee.negatif3.mp4,,,,,,,,,,,,1885.6695,1885.8522,0.534472969,-0.203703738,1,0,0,0.1815,Vrai,0,76,76,76,1,,
,,,,,P021,001,2025-04-10_22h45.41.604,Emotion.Memoire.2024,2024.1.5,Win32,59.88023952,,,,,,,,,,,,,,,DISTRACTEURS-40/DIST.ANIMÉES-20/10.NEUTRES/Dist.animee.neutre2.mp4,,,,,,,,,,,,1885.853,1886.0356,0.534472969,-0.203703738,1,0,0,0.1792,Vrai,0,77,77,77,1,,
,,,,,P021,001,2025-04-10_22h45.41.604,Emotion.Memoire.2024,2024.1.5,Win32,59.88023952,,,,,,,,,,,,,,,IMAGES_EXP_mp4_40/ANIMEES/10- ANIMEES --NEGATIVES /Video9.mp4,,,,,,,,,,,,1886.0362,1886.6688,0.537891773,-0.252706622,1,0,0,0.6268,Vrai,0,78,78,78,1,,
,,,,,P021,001,2025-04-10_22h45.41.604,Emotion.Memoire.2024,2024.1.5,Win32,59.88023952,,,,,,,,,,,,,,,DISTRACTEURS-40/DIST.ANIMÉES-20/10.NEUTRES/Dist.animee.neutre7.mp4,,,,,,,,,,,,1886.6693,1887.3525,0.537891773,-0.252706622,1,0,0,0.6822,Vrai,0,79,79,79,1,,
,,,,,P021,001,2025-04-10_22h45.41.604,Emotion.Memoire.2024,2024.1.5,Win32,59.88023952,,,,,,,,,,,,,,,,,,,,,,,,,,,,,,,,,,,,,,,,,1887.3586,1902.3554
