Consigne.started,Consigne.stopped,Key_resp1.keys,Key_resp1.rt,Key_resp1.duration,participant,session,date,expName,psychopyVersion,OS,frameRate,IMAGES.started,IMAGES.stopped,SAM.started,SAM.stopped,Plaisir.response,Plaisir.rt,EVEIL.response,EVEIL.rt,trials.thisRepN,trials.thisTrialN,trials.thisN,trials.thisIndex,trials.ran,ImageFile,ImagesDistracteursFile,Test,Calcul.started,Calcul.stopped,Key_response.keys,Key_response.rt,Key_response.duration,Consigne_reco.started,Consigne_reco.stopped,key_resp_reconn.keys,key_resp_reconn.rt,key_resp_reconn.duration,DISTRACTEURS.started,DISTRACTEURS.stopped,mouse.x,mouse.y,mouse.leftButton,mouse.midButton,mouse.rightButton,mouse.time,mouse.clicked_name,trials_2.thisRepN,trials_2.thisTrialN,trials_2.thisN,trials_2.thisIndex,trials_2.ran,MERCI.started,MERCI.stopped
1E-04,80.8217,space,80.7144,,P006,001,2025-03-17_22h45.34.937,Emotion.Memoire.2024,2024.1.5,MacIntel,59.88023952,,,,,,,,,,,,,,,,,,,,,,,,,,,,,,,,,,,,,,,,,,
,,,,,P006,001,2025-03-17_22h45.34.937,Emotion.Memoire.2024,2024.1.5,MacIntel,59.88023952,80.8326,90.8215,90.8236,114.6882,5,9.9447,5,23.8618,0,0,0,0,1,IMAGES_EXP_mp4_40/FIXES/FIX-NEGATIF-mp4/Image6.mp4,DISTRACTEURS-40/DIST.ANIMÉES-20/10.NÉGATIFS/Dist.animee.negatif10.mp4,IMAGES_EXP_mp4_40/ANIMEES/10- ANIMEES --NEGATIVES /Video1.mp4,,,,,,,,,,,,,,,,,,,,,,,,,,
,,,,,P006,001,2025-03-17_22h45.34.937,Emotion.Memoire.2024,2024.1.5,MacIntel,59.88023952,114.6888,124.6884,124.6888,137.5718,6,4.9814,5,12.8784,0,1,1,1,1,IMAGES_EXP_mp4_40/FIXES/FIX-NEUTRE-mp4/image9.mp4,DISTRACTEURS-40/DIST.ANIMÉES-20/10.NEUTRES/Dist.animee.neutre3.mp4,DISTRACTEURS-40/DIST.FIXES-20/10.NÉGATIFS/Dist.fix.negatif3.mp4,,,,,,,,,,,,,,,,,,,,,,,,,,
,,,,,P006,001,2025-03-17_22h45.34.937,Emotion.Memoire.2024,2024.1.5,MacIntel,59.88023952,137.5721,147.5721,147.5725,192.9225,2,6.8975,6,45.3481,0,2,2,2,1,IMAGES_EXP_mp4_40/FIXES/FIX-NEGATIF-mp4/Image3.mp4,IMAGES_EXP_mp4_40/ANIMEES/10- ANIMEES --NEGATIVES /Video2.mp4,DISTRACTEURS-40/DIST.FIXES-20/10.NÉGATIFS/Dist.fix.negatif5.mp4,,,,,,,,,,,,,,,,,,,,,,,,,,
,,,,,P006,001,2025-03-17_22h45.34.937,Emotion.Memoire.2024,2024.1.5,MacIntel,59.88023952,192.9229,202.9229,202.9232,209.8562,7,2.4479,1,6.9308,0,3,3,3,1,IMAGES_EXP_mp4_40/FIXES/FIX-NEGATIF-mp4/Image4.mp4,IMAGES_EXP_mp4_40/FIXES/FIX-NEUTRE-mp4/image6.mp4,,,,,,,,,,,,,,,,,,,,,,,,,,,
,,,,,P006,001,2025-03-17_22h45.34.937,Emotion.Memoire.2024,2024.1.5,MacIntel,59.88023952,209.8565,219.8564,219.8568,227.4225,2,4.0616,7,7.5644,0,4,4,4,1,IMAGES_EXP_mp4_40/FIXES/FIX-NEGATIF-mp4/Image10.mp4,IMAGES_EXP_mp4_40/FIXES/FIX-NEUTRE-mp4/image2.mp4,,,,,,,,,,,,,,,,,,,,,,,,,,,
,,,,,P006,001,2025-03-17_22h45.34.937,Emotion.Memoire.2024,2024.1.5,MacIntel,59.88023952,227.4229,237.3567,237.357,244.6069,9,4.7651,1,7.2452,0,5,5,5,1,IMAGES_EXP_mp4_40/ANIMEES/11-ANIMEES --- NEUTRES /video10.mp4,DISTRACTEURS-40/DIST.FIXES-20/10.NEUTRES /Dist.fix.neutre7.mp4,,,,,,,,,,,,,,,,,,,,,,,,,,,
,,,,,P006,001,2025-03-17_22h45.34.937,Emotion.Memoire.2024,2024.1.5,MacIntel,59.88023952,244.6071,254.6071,254.6073,271.1905,5,11.514,3,16.5807,0,6,6,6,1,IMAGES_EXP_mp4_40/ANIMEES/10- ANIMEES --NEGATIVES /Video4.mp4,DISTRACTEURS-40/DIST.ANIMÉES-20/10.NÉGATIFS/Dist.animee.negatif4.mp4,,,,,,,,,,,,,,,,,,,,,,,,,,,
,,,,,P006,001,2025-03-17_22h45.34.937,Emotion.Memoire.2024,2024.1.5,MacIntel,59.88023952,271.1908,281.19,281.1903,288.6075,7,4.7139,1,7.4139,0,7,7,7,1,IMAGES_EXP_mp4_40/FIXES/FIX-NEUTRE-mp4/image10.mp4,IMAGES_EXP_mp4_40/FIXES/FIX-NEGATIF-mp4/Image2.mp4,,,,,,,,,,,,,,,,,,,,,,,,,,,
,,,,,P006,001,2025-03-17_22h45.34.937,Emotion.Memoire.2024,2024.1.5,MacIntel,59.88023952,288.6078,298.4579,298.4581,306.2744,1,3.2799,5,7.8138,0,8,8,8,1,IMAGES_EXP_mp4_40/ANIMEES/10- ANIMEES --NEGATIVES /Video1.mp4,IMAGES_EXP_mp4_40/FIXES/FIX-NEGATIF-mp4/Image9.mp4,,,,,,,,,,,,,,,,,,,,,,,,,,,
,,,,,P006,001,2025-03-17_22h45.34.937,Emotion.Memoire.2024,2024.1.5,MacIntel,59.88023952,306.2747,316.2747,316.275,331.508,3,5.0636,3,15.2296,0,9,9,9,1,IMAGES_EXP_mp4_40/FIXES/FIX-NEUTRE-mp4/image4.mp4,DISTRACTEURS-40/DIST.FIXES-20/10.NEUTRES /Dist.fix.neutre8.mp4,,,,,,,,,,,,,,,,,,,,,,,,,,,
,,,,,P006,001,2025-03-17_22h45.34.937,Emotion.Memoire.2024,2024.1.5,MacIntel,59.88023952,331.5083,341.5084,341.5087,349.2917,9,5.2153,1,7.7811,0,10,10,10,1,IMAGES_EXP_mp4_40/ANIMEES/11-ANIMEES --- NEUTRES /video6.mp4,DISTRACTEURS-40/DIST.ANIMÉES-20/10.NÉGATIFS/Dist.animee.negatif8.mp4,,,,,,,,,,,,,,,,,,,,,,,,,,,
,,,,,P006,001,2025-03-17_22h45.34.937,Emotion.Memoire.2024,2024.1.5,MacIntel,59.88023952,349.2922,359.2921,359.2923,367.592,7,5.0648,2,8.297,0,11,11,11,1,IMAGES_EXP_mp4_40/ANIMEES/11-ANIMEES --- NEUTRES /video9.mp4,IMAGES_EXP_mp4_40/ANIMEES/11-ANIMEES --- NEUTRES /video8.mp4,,,,,,,,,,,,,,,,,,,,,,,,,,,
,,,,,P006,001,2025-03-17_22h45.34.937,Emotion.Memoire.2024,2024.1.5,MacIntel,59.88023952,367.5923,377.5924,377.5927,384.4588,9,4.414,1,6.8629,0,12,12,12,1,IMAGES_EXP_mp4_40/FIXES/FIX-NEUTRE-mp4/image8.mp4,IMAGES_EXP_mp4_40/ANIMEES/10- ANIMEES --NEGATIVES /Video8.mp4,,,,,,,,,,,,,,,,,,,,,,,,,,,
,,,,,P006,001,2025-03-17_22h45.34.937,Emotion.Memoire.2024,2024.1.5,MacIntel,59.88023952,384.4592,394.4592,394.4595,409.8093,1,7.8634,3,15.3475,0,13,13,13,1,IMAGES_EXP_mp4_40/ANIMEES/11-ANIMEES --- NEUTRES /video5.mp4,DISTRACTEURS-40/DIST.FIXES-20/10.NÉGATIFS/Dist.fix.negatif8.mp4,,,,,,,,,,,,,,,,,,,,,,,,,,,
,,,,,P006,001,2025-03-17_22h45.34.937,Emotion.Memoire.2024,2024.1.5,MacIntel,59.88023952,409.8096,419.8097,419.8099,426.6096,9,3.397,1,6.7966,0,14,14,14,1,IMAGES_EXP_mp4_40/ANIMEES/11-ANIMEES --- NEUTRES /video1.mp4,DISTRACTEURS-40/DIST.FIXES-20/10.NEUTRES /Dist.fix.neutre2.mp4,,,,,,,,,,,,,,,,,,,,,,,,,,,
,,,,,P006,001,2025-03-17_22h45.34.937,Emotion.Memoire.2024,2024.1.5,MacIntel,59.88023952,426.6099,435.81,435.8103,461.3102,1,6.3467,5,25.4968,0,15,15,15,1,IMAGES_EXP_mp4_40/ANIMEES/10- ANIMEES --NEGATIVES /Video9.mp4,DISTRACTEURS-40/DIST.ANIMÉES-20/10.NEUTRES/Dist.animee.neutre10.mp4,,,,,,,,,,,,,,,,,,,,,,,,,,,
,,,,,P006,001,2025-03-17_22h45.34.937,Emotion.Memoire.2024,2024.1.5,MacIntel,59.88023952,461.3104,470.1439,470.1441,479.3438,1,3.7807,4,9.197,0,16,16,16,1,IMAGES_EXP_mp4_40/ANIMEES/10- ANIMEES --NEGATIVES /Video8.mp4,DISTRACTEURS-40/DIST.FIXES-20/10.NEUTRES /Dist.fix.neutre5.mp4,,,,,,,,,,,,,,,,,,,,,,,,,,,
,,,,,P006,001,2025-03-17_22h45.34.937,Emotion.Memoire.2024,2024.1.5,MacIntel,59.88023952,479.3439,489.3442,489.3445,502.2433,1,2.2795,8,12.8969,0,17,17,17,1,IMAGES_EXP_mp4_40/FIXES/FIX-NEGATIF-mp4/Image5.mp4,DISTRACTEURS-40/DIST.ANIMÉES-20/10.NEUTRES/Dist.animee.neutre1.mp4,,,,,,,,,,,,,,,,,,,,,,,,,,,
,,,,,P006,001,2025-03-17_22h45.34.937,Emotion.Memoire.2024,2024.1.5,MacIntel,59.88023952,502.2435,512.2445,512.2448,516.761,9,2.4806,1,4.5118,0,18,18,18,1,IMAGES_EXP_mp4_40/ANIMEES/11-ANIMEES --- NEUTRES /video2.mp4,IMAGES_EXP_mp4_40/FIXES/FIX-NEUTRE-mp4/image5.mp4,,,,,,,,,,,,,,,,,,,,,,,,,,,
,,,,,P006,001,2025-03-17_22h45.34.937,Emotion.Memoire.2024,2024.1.5,MacIntel,59.88023952,516.7613,526.7615,526.7618,539.0447,5,7.197,3,12.2794,0,19,19,19,1,IMAGES_EXP_mp4_40/ANIMEES/10- ANIMEES --NEGATIVES /Video7.mp4,IMAGES_EXP_mp4_40/FIXES/FIX-NEUTRE-mp4/image7.mp4,,,,,,,,,,,,,,,,,,,,,,,,,,,
,,,,,P006,001,2025-03-17_22h45.34.937,Emotion.Memoire.2024,2024.1.5,MacIntel,59.88023952,539.0451,549.0452,549.0454,559.2284,9,6.7645,1,10.1806,0,20,20,20,1,IMAGES_EXP_mp4_40/FIXES/FIX-NEUTRE-mp4/image5.mp4,IMAGES_EXP_mp4_40/ANIMEES/10- ANIMEES --NEGATIVES /Video10.mp4,,,,,,,,,,,,,,,,,,,,,,,,,,,
,,,,,P006,001,2025-03-17_22h45.34.937,Emotion.Memoire.2024,2024.1.5,MacIntel,59.88023952,559.2287,569.2287,569.229,577.0455,9,4.6301,1,7.8125,0,21,21,21,1,IMAGES_EXP_mp4_40/ANIMEES/11-ANIMEES --- NEUTRES /video3.mp4,IMAGES_EXP_mp4_40/ANIMEES/10- ANIMEES --NEGATIVES /Video4.mp4,,,,,,,,,,,,,,,,,,,,,,,,,,,
,,,,,P006,001,2025-03-17_22h45.34.937,Emotion.Memoire.2024,2024.1.5,MacIntel,59.88023952,577.0458,587.0456,587.0459,593.2957,5,3.1472,2,6.2477,0,22,22,22,1,IMAGES_EXP_mp4_40/ANIMEES/10- ANIMEES --NEGATIVES /Video5.mp4,IMAGES_EXP_mp4_40/ANIMEES/10- ANIMEES --NEGATIVES /Video5.mp4,,,,,,,,,,,,,,,,,,,,,,,,,,,
,,,,,P006,001,2025-03-17_22h45.34.937,Emotion.Memoire.2024,2024.1.5,MacIntel,59.88023952,593.2959,603.2961,603.2964,608.9959,1,2.5477,5,5.6967,0,23,23,23,1,IMAGES_EXP_mp4_40/ANIMEES/11-ANIMEES --- NEUTRES /video7.mp4,IMAGES_EXP_mp4_40/ANIMEES/11-ANIMEES --- NEUTRES /video6.mp4,,,,,,,,,,,,,,,,,,,,,,,,,,,
,,,,,P006,001,2025-03-17_22h45.34.937,Emotion.Memoire.2024,2024.1.5,MacIntel,59.88023952,608.9961,618.9963,618.9965,627.6629,5,4.397,1,8.6628,0,24,24,24,1,IMAGES_EXP_mp4_40/FIXES/FIX-NEGATIF-mp4/Image8.mp4,IMAGES_EXP_mp4_40/ANIMEES/11-ANIMEES --- NEUTRES /video5.mp4,,,,,,,,,,,,,,,,,,,,,,,,,,,
,,,,,P006,001,2025-03-17_22h45.34.937,Emotion.Memoire.2024,2024.1.5,MacIntel,59.88023952,627.6632,637.6632,637.6634,647.5298,1,5.3138,2,9.8641,0,25,25,25,1,IMAGES_EXP_mp4_40/FIXES/FIX-NEGATIF-mp4/Image2.mp4,DISTRACTEURS-40/DIST.ANIMÉES-20/10.NÉGATIFS/Dist.animee.negatif5.mp4,,,,,,,,,,,,,,,,,,,,,,,,,,,
,,,,,P006,001,2025-03-17_22h45.34.937,Emotion.Memoire.2024,2024.1.5,MacIntel,59.88023952,647.5301,657.5295,657.5297,664.2301,9,2.8142,1,6.6971,0,26,26,26,1,IMAGES_EXP_mp4_40/FIXES/FIX-NEUTRE-mp4/image7.mp4,DISTRACTEURS-40/DIST.ANIMÉES-20/10.NEUTRES/Dist.animee.neutre4.mp4,,,,,,,,,,,,,,,,,,,,,,,,,,,
,,,,,P006,001,2025-03-17_22h45.34.937,Emotion.Memoire.2024,2024.1.5,MacIntel,59.88023952,664.2302,674.2297,674.2301,689.3306,9,6.1294,1,15.0985,0,27,27,27,1,IMAGES_EXP_mp4_40/ANIMEES/11-ANIMEES --- NEUTRES /video4.mp4,DISTRACTEURS-40/DIST.FIXES-20/10.NEUTRES /Dist.fix.neutre10.mp4,,,,,,,,,,,,,,,,,,,,,,,,,,,
,,,,,P006,001,2025-03-17_22h45.34.937,Emotion.Memoire.2024,2024.1.5,MacIntel,59.88023952,689.3309,699.3309,699.3311,708.0141,1,5.4136,9,8.6804,0,28,28,28,1,IMAGES_EXP_mp4_40/FIXES/FIX-NEGATIF-mp4/Image1.mp4,IMAGES_EXP_mp4_40/FIXES/FIX-NEGATIF-mp4/Image3.mp4,,,,,,,,,,,,,,,,,,,,,,,,,,,
,,,,,P006,001,2025-03-17_22h45.34.937,Emotion.Memoire.2024,2024.1.5,MacIntel,59.88023952,708.0144,718.0146,718.0148,722.2977,1,2.3131,8,4.2801,0,29,29,29,1,IMAGES_EXP_mp4_40/ANIMEES/10- ANIMEES --NEGATIVES /Video10.mp4,DISTRACTEURS-40/DIST.FIXES-20/10.NÉGATIFS/Dist.fix.negatif6.mp4,,,,,,,,,,,,,,,,,,,,,,,,,,,
,,,,,P006,001,2025-03-17_22h45.34.937,Emotion.Memoire.2024,2024.1.5,MacIntel,59.88023952,722.298,732.2981,732.2983,740.2313,9,5.2296,1,7.9302,0,30,30,30,1,IMAGES_EXP_mp4_40/ANIMEES/11-ANIMEES --- NEUTRES /video8.mp4,IMAGES_EXP_mp4_40/ANIMEES/11-ANIMEES --- NEUTRES /video1.mp4,,,,,,,,,,,,,,,,,,,,,,,,,,,
,,,,,P006,001,2025-03-17_22h45.34.937,Emotion.Memoire.2024,2024.1.5,MacIntel,59.88023952,740.2316,750.2309,750.2311,758.7817,9,3.8148,1,8.5465,0,31,31,31,1,IMAGES_EXP_mp4_40/FIXES/FIX-NEUTRE-mp4/image6.mp4,IMAGES_EXP_mp4_40/FIXES/FIX-NEUTRE-mp4/image9.mp4,,,,,,,,,,,,,,,,,,,,,,,,,,,
,,,,,P006,001,2025-03-17_22h45.34.937,Emotion.Memoire.2024,2024.1.5,MacIntel,59.88023952,758.7819,768.7816,768.7817,779.0477,3,7.5311,7,10.2638,0,32,32,32,1,IMAGES_EXP_mp4_40/ANIMEES/10- ANIMEES --NEGATIVES /Video2.mp4,IMAGES_EXP_mp4_40/ANIMEES/10- ANIMEES --NEGATIVES /Video6.mp4,,,,,,,,,,,,,,,,,,,,,,,,,,,
,,,,,P006,001,2025-03-17_22h45.34.937,Emotion.Memoire.2024,2024.1.5,MacIntel,59.88023952,779.048,789.0486,789.0487,809.9992,2,18.398,7,20.9485,0,33,33,33,1,IMAGES_EXP_mp4_40/ANIMEES/10- ANIMEES --NEGATIVES /Video3.mp4,IMAGES_EXP_mp4_40/ANIMEES/11-ANIMEES --- NEUTRES /video3.mp4,,,,,,,,,,,,,,,,,,,,,,,,,,,
,,,,,P006,001,2025-03-17_22h45.34.937,Emotion.Memoire.2024,2024.1.5,MacIntel,59.88023952,809.9995,819.9996,819.9998,828.283,9,5.5311,1,8.2782,0,34,34,34,1,IMAGES_EXP_mp4_40/FIXES/FIX-NEUTRE-mp4/image2.mp4,DISTRACTEURS-40/DIST.ANIMÉES-20/10.NÉGATIFS/Dist.animee.negatif7.mp4,,,,,,,,,,,,,,,,,,,,,,,,,,,
,,,,,P006,001,2025-03-17_22h45.34.937,Emotion.Memoire.2024,2024.1.5,MacIntel,59.88023952,828.2833,838.2832,838.2834,842.9332,9,2.097,1,4.645,0,35,35,35,1,IMAGES_EXP_mp4_40/FIXES/FIX-NEUTRE-mp4/image3.mp4,IMAGES_EXP_mp4_40/ANIMEES/11-ANIMEES --- NEUTRES /video9.mp4,,,,,,,,,,,,,,,,,,,,,,,,,,,
,,,,,P006,001,2025-03-17_22h45.34.937,Emotion.Memoire.2024,2024.1.5,MacIntel,59.88023952,842.9336,852.932,852.9323,861.599,2,4.3149,2,8.6634,0,36,36,36,1,IMAGES_EXP_mp4_40/FIXES/FIX-NEGATIF-mp4/Image9.mp4,DISTRACTEURS-40/DIST.ANIMÉES-20/10.NEUTRES/Dist.animee.neutre6.mp4,,,,,,,,,,,,,,,,,,,,,,,,,,,
,,,,,P006,001,2025-03-17_22h45.34.937,Emotion.Memoire.2024,2024.1.5,MacIntel,59.88023952,861.5994,871.6021,871.6029,879.8002,5,2.4614,4,8.192,0,37,37,37,1,IMAGES_EXP_mp4_40/FIXES/FIX-NEGATIF-mp4/Image7.mp4,IMAGES_EXP_mp4_40/FIXES/FIX-NEGATIF-mp4/Image8.mp4,,,,,,,,,,,,,,,,,,,,,,,,,,,
,,,,,P006,001,2025-03-17_22h45.34.937,Emotion.Memoire.2024,2024.1.5,MacIntel,59.88023952,879.8006,889.8002,889.8003,896.7997,1,5.165,8,6.9983,0,38,38,38,1,IMAGES_EXP_mp4_40/ANIMEES/10- ANIMEES --NEGATIVES /Video6.mp4,IMAGES_EXP_mp4_40/FIXES/FIX-NEUTRE-mp4/image8.mp4,,,,,,,,,,,,,,,,,,,,,,,,,,,
,,,,,P006,001,2025-03-17_22h45.34.937,Emotion.Memoire.2024,2024.1.5,MacIntel,59.88023952,896.7999,906.8008,906.8011,915.0004,7,3.5483,1,8.1961,0,39,39,39,1,IMAGES_EXP_mp4_40/FIXES/FIX-NEUTRE-mp4/image1.mp4,IMAGES_EXP_mp4_40/ANIMEES/11-ANIMEES --- NEUTRES /video7.mp4,,,,,,,,,,,,,,,,,,,,,,,,,,,
,,,,,P006,001,2025-03-17_22h45.34.937,Emotion.Memoire.2024,2024.1.5,MacIntel,59.88023952,,,,,,,,,,,,,,,,,915.005,1048.7702,space,133.7025,,,,,,,,,,,,,,,,,,,,,,
,,,,,P006,001,2025-03-17_22h45.34.937,Emotion.Memoire.2024,2024.1.5,MacIntel,59.88023952,,,,,,,,,,,,,,,,,,,,,,1048.7703,1124.9368,space,76.0588,,,,,,,,,,,,,,,,,
,,,,,P006,001,2025-03-17_22h45.34.937,Emotion.Memoire.2024,2024.1.5,MacIntel,59.88023952,,,,,,,,,,,,,,IMAGES_EXP_mp4_40/FIXES/FIX-NEGATIF-mp4/Image6.mp4,DISTRACTEURS-40/DIST.ANIMÉES-20/10.NÉGATIFS/Dist.animee.negatif10.mp4,IMAGES_EXP_mp4_40/ANIMEES/10- ANIMEES --NEGATIVES /Video1.mp4,,,,,,,,,,,1124.9405,1130.17,0.464405382,-0.233476563,1,0,0,5.2284,Vrai,0,0,0,0,1,,
,,,,,P006,001,2025-03-17_22h45.34.937,Emotion.Memoire.2024,2024.1.5,MacIntel,59.88023952,,,,,,,,,,,,,,IMAGES_EXP_mp4_40/FIXES/FIX-NEUTRE-mp4/image9.mp4,DISTRACTEURS-40/DIST.ANIMÉES-20/10.NEUTRES/Dist.animee.neutre3.mp4,DISTRACTEURS-40/DIST.FIXES-20/10.NÉGATIFS/Dist.fix.negatif3.mp4,,,,,,,,,,,1130.1704,1138.4542,-0.373224826,-0.316801215,1,0,0,8.0655,Faux,0,1,1,1,1,,
,,,,,P006,001,2025-03-17_22h45.34.937,Emotion.Memoire.2024,2024.1.5,MacIntel,59.88023952,,,,,,,,,,,,,,IMAGES_EXP_mp4_40/FIXES/FIX-NEGATIF-mp4/Image3.mp4,IMAGES_EXP_mp4_40/ANIMEES/10- ANIMEES --NEGATIVES /Video2.mp4,DISTRACTEURS-40/DIST.FIXES-20/10.NÉGATIFS/Dist.fix.negatif5.mp4,,,,,,,,,,,1138.4546,1139.2375,-0.499140625,-0.28484375,1,0,0,0.7821,Faux,0,2,2,2,1,,
,,,,,P006,001,2025-03-17_22h45.34.937,Emotion.Memoire.2024,2024.1.5,MacIntel,59.88023952,,,,,,,,,,,,,,IMAGES_EXP_mp4_40/FIXES/FIX-NEGATIF-mp4/Image4.mp4,IMAGES_EXP_mp4_40/FIXES/FIX-NEUTRE-mp4/image6.mp4,,,,,,,,,,,,1139.2378,1142.5377,0.56108941,-0.3025,1,0,0,3.2996,Vrai,0,3,3,3,1,,
,,,,,P006,001,2025-03-17_22h45.34.937,Emotion.Memoire.2024,2024.1.5,MacIntel,59.88023952,,,,,,,,,,,,,,IMAGES_EXP_mp4_40/FIXES/FIX-NEGATIF-mp4/Image10.mp4,IMAGES_EXP_mp4_40/FIXES/FIX-NEUTRE-mp4/image2.mp4,,,,,,,,,,,,1142.5382,1143.4712,0.56108941,-0.3025,1,0,0,0.9323,Vrai,0,4,4,4,1,,
,,,,,P006,001,2025-03-17_22h45.34.937,Emotion.Memoire.2024,2024.1.5,MacIntel,59.88023952,,,,,,,,,,,,,,IMAGES_EXP_mp4_40/ANIMEES/11-ANIMEES --- NEUTRES /video10.mp4,DISTRACTEURS-40/DIST.FIXES-20/10.NEUTRES /Dist.fix.neutre7.mp4,,,,,,,,,,,,1143.4716,1145.4601,-0.518359375,-0.305199653,1,0,0,1.9876,Faux,0,5,5,5,1,,
,,,,,P006,001,2025-03-17_22h45.34.937,Emotion.Memoire.2024,2024.1.5,MacIntel,59.88023952,,,,,,,,,,,,,,IMAGES_EXP_mp4_40/ANIMEES/10- ANIMEES --NEGATIVES /Video4.mp4,DISTRACTEURS-40/DIST.ANIMÉES-20/10.NÉGATIFS/Dist.animee.negatif4.mp4,,,,,,,,,,,,1145.4608,1146.7043,-0.538467882,-0.275299479,1,0,0,1.2394,Faux,0,6,6,6,1,,
,,,,,P006,001,2025-03-17_22h45.34.937,Emotion.Memoire.2024,2024.1.5,MacIntel,59.88023952,,,,,,,,,,,,,,IMAGES_EXP_mp4_40/FIXES/FIX-NEUTRE-mp4/image10.mp4,IMAGES_EXP_mp4_40/FIXES/FIX-NEGATIF-mp4/Image2.mp4,,,,,,,,,,,,1146.7047,1147.7879,0.512300347,-0.290091146,1,0,0,1.0821,Vrai,0,7,7,7,1,,
,,,,,P006,001,2025-03-17_22h45.34.937,Emotion.Memoire.2024,2024.1.5,MacIntel,59.88023952,,,,,,,,,,,,,,IMAGES_EXP_mp4_40/ANIMEES/10- ANIMEES --NEGATIVES /Video1.mp4,IMAGES_EXP_mp4_40/FIXES/FIX-NEGATIF-mp4/Image9.mp4,,,,,,,,,,,,1147.7885,1148.721,0.512300347,-0.290091146,1,0,0,0.9317,Vrai,0,8,8,8,1,,
,,,,,P006,001,2025-03-17_22h45.34.937,Emotion.Memoire.2024,2024.1.5,MacIntel,59.88023952,,,,,,,,,,,,,,IMAGES_EXP_mp4_40/FIXES/FIX-NEUTRE-mp4/image4.mp4,DISTRACTEURS-40/DIST.FIXES-20/10.NEUTRES /Dist.fix.neutre8.mp4,,,,,,,,,,,,1148.7213,1150.1425,-0.556848958,-0.280299479,1,0,0,1.4192,Faux,0,9,9,9,1,,
,,,,,P006,001,2025-03-17_22h45.34.937,Emotion.Memoire.2024,2024.1.5,MacIntel,59.88023952,,,,,,,,,,,,,,IMAGES_EXP_mp4_40/ANIMEES/11-ANIMEES --- NEUTRES /video6.mp4,DISTRACTEURS-40/DIST.ANIMÉES-20/10.NÉGATIFS/Dist.animee.negatif8.mp4,,,,,,,,,,,,1150.1493,1151.3211,-0.556710069,-0.280438368,1,0,0,1.1609,Faux,0,10,10,10,1,,
,,,,,P006,001,2025-03-17_22h45.34.937,Emotion.Memoire.2024,2024.1.5,MacIntel,59.88023952,,,,,,,,,,,,,,IMAGES_EXP_mp4_40/ANIMEES/11-ANIMEES --- NEUTRES /video9.mp4,IMAGES_EXP_mp4_40/ANIMEES/11-ANIMEES --- NEUTRES /video8.mp4,,,,,,,,,,,,1151.3214,1152.7547,0.446150174,-0.297790799,1,0,0,1.4326,Vrai,0,11,11,11,1,,
,,,,,P006,001,2025-03-17_22h45.34.937,Emotion.Memoire.2024,2024.1.5,MacIntel,59.88023952,,,,,,,,,,,,,,IMAGES_EXP_mp4_40/FIXES/FIX-NEUTRE-mp4/image8.mp4,IMAGES_EXP_mp4_40/ANIMEES/10- ANIMEES --NEGATIVES /Video8.mp4,,,,,,,,,,,,1152.7555,1153.7046,0.446289063,-0.297790799,1,0,0,0.9465,Vrai,0,12,12,12,1,,
,,,,,P006,001,2025-03-17_22h45.34.937,Emotion.Memoire.2024,2024.1.5,MacIntel,59.88023952,,,,,,,,,,,,,,IMAGES_EXP_mp4_40/ANIMEES/11-ANIMEES --- NEUTRES /video5.mp4,DISTRACTEURS-40/DIST.FIXES-20/10.NÉGATIFS/Dist.fix.negatif8.mp4,,,,,,,,,,,,1153.7051,1155.5548,-0.539140625,-0.280555556,1,0,0,1.8484,Faux,0,13,13,13,1,,
,,,,,P006,001,2025-03-17_22h45.34.937,Emotion.Memoire.2024,2024.1.5,MacIntel,59.88023952,,,,,,,,,,,,,,IMAGES_EXP_mp4_40/ANIMEES/11-ANIMEES --- NEUTRES /video1.mp4,DISTRACTEURS-40/DIST.FIXES-20/10.NEUTRES /Dist.fix.neutre2.mp4,,,,,,,,,,,,1155.5552,1156.9378,-0.471206597,-0.275989583,1,0,0,1.3806,Faux,0,14,14,14,1,,
,,,,,P006,001,2025-03-17_22h45.34.937,Emotion.Memoire.2024,2024.1.5,MacIntel,59.88023952,,,,,,,,,,,,,,IMAGES_EXP_mp4_40/ANIMEES/10- ANIMEES --NEGATIVES /Video9.mp4,DISTRACTEURS-40/DIST.ANIMÉES-20/10.NEUTRES/Dist.animee.neutre10.mp4,,,,,,,,,,,,1156.9383,1159.3714,-0.468849826,-0.275859375,1,0,0,2.432,Faux,0,15,15,15,1,,
,,,,,P006,001,2025-03-17_22h45.34.937,Emotion.Memoire.2024,2024.1.5,MacIntel,59.88023952,,,,,,,,,,,,,,IMAGES_EXP_mp4_40/ANIMEES/10- ANIMEES --NEGATIVES /Video8.mp4,DISTRACTEURS-40/DIST.FIXES-20/10.NEUTRES /Dist.fix.neutre5.mp4,,,,,,,,,,,,1159.3719,1160.4878,-0.468849826,-0.275859375,1,0,0,1.1143,Faux,0,16,16,16,1,,
,,,,,P006,001,2025-03-17_22h45.34.937,Emotion.Memoire.2024,2024.1.5,MacIntel,59.88023952,,,,,,,,,,,,,,IMAGES_EXP_mp4_40/FIXES/FIX-NEGATIF-mp4/Image5.mp4,DISTRACTEURS-40/DIST.ANIMÉES-20/10.NEUTRES/Dist.animee.neutre1.mp4,,,,,,,,,,,,1160.4883,1162.3046,-0.468849826,-0.275859375,1,0,0,1.8143,Faux,0,17,17,17,1,,
,,,,,P006,001,2025-03-17_22h45.34.937,Emotion.Memoire.2024,2024.1.5,MacIntel,59.88023952,,,,,,,,,,,,,,IMAGES_EXP_mp4_40/ANIMEES/11-ANIMEES --- NEUTRES /video2.mp4,IMAGES_EXP_mp4_40/FIXES/FIX-NEUTRE-mp4/image5.mp4,,,,,,,,,,,,1162.305,1163.7213,0.555516493,-0.2934375,1,0,0,1.4122,Vrai,0,18,18,18,1,,
,,,,,P006,001,2025-03-17_22h45.34.937,Emotion.Memoire.2024,2024.1.5,MacIntel,59.88023952,,,,,,,,,,,,,,IMAGES_EXP_mp4_40/ANIMEES/10- ANIMEES --NEGATIVES /Video7.mp4,IMAGES_EXP_mp4_40/FIXES/FIX-NEUTRE-mp4/image7.mp4,,,,,,,,,,,,1163.7216,1164.6049,0.555212674,-0.2934375,1,0,0,0.8824,Vrai,0,19,19,19,1,,
,,,,,P006,001,2025-03-17_22h45.34.937,Emotion.Memoire.2024,2024.1.5,MacIntel,59.88023952,,,,,,,,,,,,,,IMAGES_EXP_mp4_40/FIXES/FIX-NEUTRE-mp4/image5.mp4,IMAGES_EXP_mp4_40/ANIMEES/10- ANIMEES --NEGATIVES /Video10.mp4,,,,,,,,,,,,1164.6055,1165.3047,0.555212674,-0.2934375,1,0,0,0.6976,Vrai,0,20,20,20,1,,
,,,,,P006,001,2025-03-17_22h45.34.937,Emotion.Memoire.2024,2024.1.5,MacIntel,59.88023952,,,,,,,,,,,,,,IMAGES_EXP_mp4_40/ANIMEES/11-ANIMEES --- NEUTRES /video3.mp4,IMAGES_EXP_mp4_40/ANIMEES/10- ANIMEES --NEGATIVES /Video4.mp4,,,,,,,,,,,,1165.3053,1166.0047,0.555212674,-0.2934375,1,0,0,0.6976,Vrai,0,21,21,21,1,,
,,,,,P006,001,2025-03-17_22h45.34.937,Emotion.Memoire.2024,2024.1.5,MacIntel,59.88023952,,,,,,,,,,,,,,IMAGES_EXP_mp4_40/ANIMEES/10- ANIMEES --NEGATIVES /Video5.mp4,IMAGES_EXP_mp4_40/ANIMEES/10- ANIMEES --NEGATIVES /Video5.mp4,,,,,,,,,,,,1166.0051,1166.8712,0.555212674,-0.2934375,1,0,0,0.8643,Vrai,0,22,22,22,1,,
,,,,,P006,001,2025-03-17_22h45.34.937,Emotion.Memoire.2024,2024.1.5,MacIntel,59.88023952,,,,,,,,,,,,,,IMAGES_EXP_mp4_40/ANIMEES/11-ANIMEES --- NEUTRES /video7.mp4,IMAGES_EXP_mp4_40/ANIMEES/11-ANIMEES --- NEUTRES /video6.mp4,,,,,,,,,,,,1166.8715,1167.6379,0.555212674,-0.2934375,1,0,0,0.7604,Vrai,0,23,23,23,1,,
,,,,,P006,001,2025-03-17_22h45.34.937,Emotion.Memoire.2024,2024.1.5,MacIntel,59.88023952,,,,,,,,,,,,,,IMAGES_EXP_mp4_40/FIXES/FIX-NEGATIF-mp4/Image8.mp4,IMAGES_EXP_mp4_40/ANIMEES/11-ANIMEES --- NEUTRES /video5.mp4,,,,,,,,,,,,1167.6384,1168.3213,0.555212674,-0.2934375,1,0,0,0.6804,Vrai,0,24,24,24,1,,
,,,,,P006,001,2025-03-17_22h45.34.937,Emotion.Memoire.2024,2024.1.5,MacIntel,59.88023952,,,,,,,,,,,,,,IMAGES_EXP_mp4_40/FIXES/FIX-NEGATIF-mp4/Image2.mp4,DISTRACTEURS-40/DIST.ANIMÉES-20/10.NÉGATIFS/Dist.animee.negatif5.mp4,,,,,,,,,,,,1168.3218,1170.2215,-0.542039931,-0.288164062,1,0,0,1.8955,Faux,0,25,25,25,1,,
,,,,,P006,001,2025-03-17_22h45.34.937,Emotion.Memoire.2024,2024.1.5,MacIntel,59.88023952,,,,,,,,,,,,,,IMAGES_EXP_mp4_40/FIXES/FIX-NEUTRE-mp4/image7.mp4,DISTRACTEURS-40/DIST.ANIMÉES-20/10.NEUTRES/Dist.animee.neutre4.mp4,,,,,,,,,,,,1170.2217,1171.438,-0.521996528,-0.283394097,1,0,0,1.2158,Faux,0,26,26,26,1,,
,,,,,P006,001,2025-03-17_22h45.34.937,Emotion.Memoire.2024,2024.1.5,MacIntel,59.88023952,,,,,,,,,,,,,,IMAGES_EXP_mp4_40/ANIMEES/11-ANIMEES --- NEUTRES /video4.mp4,DISTRACTEURS-40/DIST.FIXES-20/10.NEUTRES /Dist.fix.neutre10.mp4,,,,,,,,,,,,1171.4384,1172.838,-0.521996528,-0.283394097,1,0,0,1.3971,Faux,0,27,27,27,1,,
,,,,,P006,001,2025-03-17_22h45.34.937,Emotion.Memoire.2024,2024.1.5,MacIntel,59.88023952,,,,,,,,,,,,,,IMAGES_EXP_mp4_40/FIXES/FIX-NEGATIF-mp4/Image1.mp4,IMAGES_EXP_mp4_40/FIXES/FIX-NEGATIF-mp4/Image3.mp4,,,,,,,,,,,,1172.8385,1174.3049,0.510273437,-0.306927083,1,0,0,1.4606,Vrai,0,28,28,28,1,,
,,,,,P006,001,2025-03-17_22h45.34.937,Emotion.Memoire.2024,2024.1.5,MacIntel,59.88023952,,,,,,,,,,,,,,IMAGES_EXP_mp4_40/ANIMEES/10- ANIMEES --NEGATIVES /Video10.mp4,DISTRACTEURS-40/DIST.FIXES-20/10.NÉGATIFS/Dist.fix.negatif6.mp4,,,,,,,,,,,,1174.3054,1175.9883,-0.501927083,-0.319917535,1,0,0,1.6777,Faux,0,29,29,29,1,,
,,,,,P006,001,2025-03-17_22h45.34.937,Emotion.Memoire.2024,2024.1.5,MacIntel,59.88023952,,,,,,,,,,,,,,IMAGES_EXP_mp4_40/ANIMEES/11-ANIMEES --- NEUTRES /video8.mp4,IMAGES_EXP_mp4_40/ANIMEES/11-ANIMEES --- NEUTRES /video1.mp4,,,,,,,,,,,,1175.9888,1177.3717,0.552300347,-0.309392361,1,0,0,1.3819,Vrai,0,30,30,30,1,,
,,,,,P006,001,2025-03-17_22h45.34.937,Emotion.Memoire.2024,2024.1.5,MacIntel,59.88023952,,,,,,,,,,,,,,IMAGES_EXP_mp4_40/FIXES/FIX-NEUTRE-mp4/image6.mp4,IMAGES_EXP_mp4_40/FIXES/FIX-NEUTRE-mp4/image9.mp4,,,,,,,,,,,,1177.3724,1178.3053,0.549414063,-0.30875,1,0,0,0.9311,Vrai,0,31,31,31,1,,
,,,,,P006,001,2025-03-17_22h45.34.937,Emotion.Memoire.2024,2024.1.5,MacIntel,59.88023952,,,,,,,,,,,,,,IMAGES_EXP_mp4_40/ANIMEES/10- ANIMEES --NEGATIVES /Video2.mp4,IMAGES_EXP_mp4_40/ANIMEES/10- ANIMEES --NEGATIVES /Video6.mp4,,,,,,,,,,,,1178.3059,1179.0215,0.549110243,-0.30859809,1,0,0,0.7135,Vrai,0,32,32,32,1,,
,,,,,P006,001,2025-03-17_22h45.34.937,Emotion.Memoire.2024,2024.1.5,MacIntel,59.88023952,,,,,,,,,,,,,,IMAGES_EXP_mp4_40/ANIMEES/10- ANIMEES --NEGATIVES /Video3.mp4,IMAGES_EXP_mp4_40/ANIMEES/11-ANIMEES --- NEUTRES /video3.mp4,,,,,,,,,,,,1179.0219,1179.8049,0.549110243,-0.30859809,1,0,0,0.7825,Vrai,0,33,33,33,1,,
,,,,,P006,001,2025-03-17_22h45.34.937,Emotion.Memoire.2024,2024.1.5,MacIntel,59.88023952,,,,,,,,,,,,,,IMAGES_EXP_mp4_40/FIXES/FIX-NEUTRE-mp4/image2.mp4,DISTRACTEURS-40/DIST.ANIMÉES-20/10.NÉGATIFS/Dist.animee.negatif7.mp4,,,,,,,,,,,,1179.8053,1181.4882,-0.516280382,-0.310807292,1,0,0,1.6809,Faux,0,34,34,34,1,,
,,,,,P006,001,2025-03-17_22h45.34.937,Emotion.Memoire.2024,2024.1.5,MacIntel,59.88023952,,,,,,,,,,,,,,IMAGES_EXP_mp4_40/FIXES/FIX-NEUTRE-mp4/image3.mp4,IMAGES_EXP_mp4_40/ANIMEES/11-ANIMEES --- NEUTRES /video9.mp4,,,,,,,,,,,,1181.4884,1183.5884,0.44280816,-0.278172743,1,0,0,2.0985,Vrai,0,35,35,35,1,,
,,,,,P006,001,2025-03-17_22h45.34.937,Emotion.Memoire.2024,2024.1.5,MacIntel,59.88023952,,,,,,,,,,,,,,IMAGES_EXP_mp4_40/FIXES/FIX-NEGATIF-mp4/Image9.mp4,DISTRACTEURS-40/DIST.ANIMÉES-20/10.NEUTRES/Dist.animee.neutre6.mp4,,,,,,,,,,,,1183.5891,1185.2551,-0.470698785,-0.259539931,1,0,0,1.6635,Faux,0,36,36,36,1,,
,,,,,P006,001,2025-03-17_22h45.34.937,Emotion.Memoire.2024,2024.1.5,MacIntel,59.88023952,,,,,,,,,,,,,,IMAGES_EXP_mp4_40/FIXES/FIX-NEGATIF-mp4/Image7.mp4,IMAGES_EXP_mp4_40/FIXES/FIX-NEGATIF-mp4/Image8.mp4,,,,,,,,,,,,1185.2559,1186.9554,0.493624132,-0.2915625,1,0,0,1.6982,Vrai,0,37,37,37,1,,
,,,,,P006,001,2025-03-17_22h45.34.937,Emotion.Memoire.2024,2024.1.5,MacIntel,59.88023952,,,,,,,,,,,,,,IMAGES_EXP_mp4_40/ANIMEES/10- ANIMEES --NEGATIVES /Video6.mp4,IMAGES_EXP_mp4_40/FIXES/FIX-NEUTRE-mp4/image8.mp4,,,,,,,,,,,,1186.9559,1187.9716,0.493624132,-0.2915625,1,0,0,1.0148,Vrai,0,38,38,38,1,,
,,,,,P006,001,2025-03-17_22h45.34.937,Emotion.Memoire.2024,2024.1.5,MacIntel,59.88023952,,,,,,,,,,,,,,IMAGES_EXP_mp4_40/FIXES/FIX-NEUTRE-mp4/image1.mp4,IMAGES_EXP_mp4_40/ANIMEES/11-ANIMEES --- NEUTRES /video7.mp4,,,,,,,,,,,,1187.9718,1189.2551,0.493624132,-0.2915625,1,0,0,1.2825,Vrai,0,39,39,39,1,,
,,,,,P006,001,2025-03-17_22h45.34.937,Emotion.Memoire.2024,2024.1.5,MacIntel,59.88023952,,,,,,,,,,,,,,IMAGES_EXP_mp4_40/ANIMEES/10- ANIMEES --NEGATIVES /Video1.mp4,DISTRACTEURS-40/DIST.ANIMÉES-20/10.NÉGATIFS/Dist.animee.negatif1.mp4,,,,,,,,,,,,1189.2556,1190.505,-0.504813368,-0.251692708,1,0,0,1.2475,Faux,0,40,40,40,1,,
,,,,,P006,001,2025-03-17_22h45.34.937,Emotion.Memoire.2024,2024.1.5,MacIntel,59.88023952,,,,,,,,,,,,,,,DISTRACTEURS-40/DIST.FIXES-20/10.NEUTRES /Dist.fix.neutre9.mp4,,,,,,,,,,,,1190.5054,1191.405,-0.502261285,-0.253528646,1,0,0,0.8976,Faux,0,41,41,41,1,,
,,,,,P006,001,2025-03-17_22h45.34.937,Emotion.Memoire.2024,2024.1.5,MacIntel,59.88023952,,,,,,,,,,,,,,,DISTRACTEURS-40/DIST.FIXES-20/10.NÉGATIFS/Dist.fix.negatif7.mp4,,,,,,,,,,,,1191.4052,1192.3551,-0.502261285,-0.253663194,1,0,0,0.9471,Faux,0,42,42,42,1,,
,,,,,P006,001,2025-03-17_22h45.34.937,Emotion.Memoire.2024,2024.1.5,MacIntel,59.88023952,,,,,,,,,,,,,,,DISTRACTEURS-40/DIST.ANIMÉES-20/10.NEUTRES/Dist.animee.neutre9.mp4,,,,,,,,,,,,1192.3557,1193.2217,-0.502261285,-0.253663194,1,0,0,0.865,Faux,0,43,43,43,1,,
,,,,,P006,001,2025-03-17_22h45.34.937,Emotion.Memoire.2024,2024.1.5,MacIntel,59.88023952,,,,,,,,,,,,,,,DISTRACTEURS-40/DIST.FIXES-20/10.NÉGATIFS/Dist.fix.negatif1.mp4,,,,,,,,,,,,1193.2221,1193.9386,-0.502261285,-0.253663194,1,0,0,0.7153,Faux,0,44,44,44,1,,
,,,,,P006,001,2025-03-17_22h45.34.937,Emotion.Memoire.2024,2024.1.5,MacIntel,59.88023952,,,,,,,,,,,,,,,DISTRACTEURS-40/DIST.ANIMÉES-20/10.NÉGATIFS/Dist.animee.negatif6.mp4,,,,,,,,,,,,1193.9391,1194.7717,-0.502261285,-0.253663194,1,0,0,0.8308,Faux,0,45,45,45,1,,
,,,,,P006,001,2025-03-17_22h45.34.937,Emotion.Memoire.2024,2024.1.5,MacIntel,59.88023952,,,,,,,,,,,,,,,DISTRACTEURS-40/DIST.ANIMÉES-20/10.NÉGATIFS/Dist.animee.negatif2.mp4,,,,,,,,,,,,1194.7721,1196.0717,-0.502261285,-0.253663194,1,0,0,1.2962,Faux,0,46,46,46,1,,
,,,,,P006,001,2025-03-17_22h45.34.937,Emotion.Memoire.2024,2024.1.5,MacIntel,59.88023952,,,,,,,,,,,,,,,IMAGES_EXP_mp4_40/FIXES/FIX-NEGATIF-mp4/Image4.mp4,,,,,,,,,,,,1196.072,1197.622,0.519023438,-0.280403646,1,0,0,1.5494,Vrai,0,47,47,47,1,,
,,,,,P006,001,2025-03-17_22h45.34.937,Emotion.Memoire.2024,2024.1.5,MacIntel,59.88023952,,,,,,,,,,,,,,,IMAGES_EXP_mp4_40/ANIMEES/10- ANIMEES --NEGATIVES /Video7.mp4,,,,,,,,,,,,1197.6225,1198.4388,0.518719618,-0.280403646,1,0,0,0.8146,Vrai,0,48,48,48,1,,
,,,,,P006,001,2025-03-17_22h45.34.937,Emotion.Memoire.2024,2024.1.5,MacIntel,59.88023952,,,,,,,,,,,,,,,IMAGES_EXP_mp4_40/FIXES/FIX-NEUTRE-mp4/image4.mp4,,,,,,,,,,,,1198.4393,1199.1386,0.518719618,-0.280403646,1,0,0,0.6971,Vrai,0,49,49,49,1,,
,,,,,P006,001,2025-03-17_22h45.34.937,Emotion.Memoire.2024,2024.1.5,MacIntel,59.88023952,,,,,,,,,,,,,,,DISTRACTEURS-40/DIST.FIXES-20/10.NÉGATIFS/Dist.fix.negatif5.mp4,,,,,,,,,,,,1199.1391,1201.1743,-0.495177951,-0.30406684,1,0,0,2.0343,Faux,0,50,50,50,1,,
,,,,,P006,001,2025-03-17_22h45.34.937,Emotion.Memoire.2024,2024.1.5,MacIntel,59.88023952,,,,,,,,,,,,,,,DISTRACTEURS-40/DIST.ANIMÉES-20/10.NÉGATIFS/Dist.animee.negatif9.mp4,,,,,,,,,,,,1201.1751,1202.1053,-0.495177951,-0.30406684,1,0,0,0.9231,Faux,0,51,51,51,1,,
,,,,,P006,001,2025-03-17_22h45.34.937,Emotion.Memoire.2024,2024.1.5,MacIntel,59.88023952,,,,,,,,,,,,,,,IMAGES_EXP_mp4_40/ANIMEES/11-ANIMEES --- NEUTRES /video2.mp4,,,,,,,,,,,,1202.1057,1203.8053,0.427252604,-0.270182292,1,0,0,1.6926,Vrai,0,52,52,52,1,,
,,,,,P006,001,2025-03-17_22h45.34.937,Emotion.Memoire.2024,2024.1.5,MacIntel,59.88023952,,,,,,,,,,,,,,,DISTRACTEURS-40/DIST.ANIMÉES-20/10.NEUTRES/Dist.animee.neutre5.mp4,,,,,,,,,,,,1203.8058,1206.2552,-0.539509549,-0.283068576,1,0,0,2.4474,Faux,0,53,53,53,1,,
,,,,,P006,001,2025-03-17_22h45.34.937,Emotion.Memoire.2024,2024.1.5,MacIntel,59.88023952,,,,,,,,,,,,,,,IMAGES_EXP_mp4_40/FIXES/FIX-NEGATIF-mp4/Image7.mp4,,,,,,,,,,,,1206.2556,1207.9664,0.443220486,-0.273819444,1,0,0,1.7072,Vrai,0,54,54,54,1,,
,,,,,P006,001,2025-03-17_22h45.34.937,Emotion.Memoire.2024,2024.1.5,MacIntel,59.88023952,,,,,,,,,,,,,,,IMAGES_EXP_mp4_40/FIXES/FIX-NEGATIF-mp4/Image6.mp4,,,,,,,,,,,,1207.975,1208.8886,0.443706597,-0.273819444,1,0,0,0.9095,Vrai,0,55,55,55,1,,
,,,,,P006,001,2025-03-17_22h45.34.937,Emotion.Memoire.2024,2024.1.5,MacIntel,59.88023952,,,,,,,,,,,,,,,IMAGES_EXP_mp4_40/FIXES/FIX-NEGATIF-mp4/Image5.mp4,,,,,,,,,,,,1208.889,1209.7055,0.443706597,-0.273819444,1,0,0,0.8153,Vrai,0,56,56,56,1,,
,,,,,P006,001,2025-03-17_22h45.34.937,Emotion.Memoire.2024,2024.1.5,MacIntel,59.88023952,,,,,,,,,,,,,,,IMAGES_EXP_mp4_40/ANIMEES/11-ANIMEES --- NEUTRES /video10.mp4,,,,,,,,,,,,1209.706,1210.5387,0.443706597,-0.273819444,1,0,0,0.8305,Vrai,0,57,57,57,1,,
,,,,,P006,001,2025-03-17_22h45.34.937,Emotion.Memoire.2024,2024.1.5,MacIntel,59.88023952,,,,,,,,,,,,,,,DISTRACTEURS-40/DIST.FIXES-20/10.NEUTRES /Dist.fix.neutre4.mp4,,,,,,,,,,,,1210.5392,1211.9053,-0.569327257,-0.24625,1,0,0,1.3637,Faux,0,58,58,58,1,,
,,,,,P006,001,2025-03-17_22h45.34.937,Emotion.Memoire.2024,2024.1.5,MacIntel,59.88023952,,,,,,,,,,,,,,,IMAGES_EXP_mp4_40/ANIMEES/11-ANIMEES --- NEUTRES /video4.mp4,,,,,,,,,,,,1211.9056,1213.0556,0.595850694,-0.263845486,1,0,0,1.1463,Vrai,0,59,59,59,1,,
,,,,,P006,001,2025-03-17_22h45.34.937,Emotion.Memoire.2024,2024.1.5,MacIntel,59.88023952,,,,,,,,,,,,,,,DISTRACTEURS-40/DIST.FIXES-20/10.NEUTRES /Dist.fix.neutre6.mp4,,,,,,,,,,,,1213.056,1213.4895,0.584262153,-0.263845486,1,0,0,0.4308,Vrai,0,60,60,60,1,,
,,,,,P006,001,2025-03-17_22h45.34.937,Emotion.Memoire.2024,2024.1.5,MacIntel,59.88023952,,,,,,,,,,,,,,,DISTRACTEURS-40/DIST.FIXES-20/10.NEUTRES /Dist.fix.neutre3.mp4,,,,,,,,,,,,1213.4902,1216.7054,-0.507356771,-0.305013021,1,0,0,3.2107,Faux,0,61,61,61,1,,
,,,,,P006,001,2025-03-17_22h45.34.937,Emotion.Memoire.2024,2024.1.5,MacIntel,59.88023952,,,,,,,,,,,,,,,DISTRACTEURS-40/DIST.FIXES-20/10.NÉGATIFS/Dist.fix.negatif10.mp4,,,,,,,,,,,,1216.706,1217.5382,-0.507356771,-0.305013021,1,0,0,0.8286,Faux,0,62,62,62,1,,
,,,,,P006,001,2025-03-17_22h45.34.937,Emotion.Memoire.2024,2024.1.5,MacIntel,59.88023952,,,,,,,,,,,,,,,IMAGES_EXP_mp4_40/ANIMEES/10- ANIMEES --NEGATIVES /Video1.mp4,,,,,,,,,,,,1217.5387,1219.2222,0.436853299,-0.285598958,1,0,0,1.679,Vrai,0,63,63,63,1,,
,,,,,P006,001,2025-03-17_22h45.34.937,Emotion.Memoire.2024,2024.1.5,MacIntel,59.88023952,,,,,,,,,,,,,,,DISTRACTEURS-40/DIST.FIXES-20/10.NÉGATIFS/Dist.fix.negatif9.mp4,,,,,,,,,,,,1219.2226,1220.8056,-0.510993924,-0.279157986,1,0,0,1.5774,Faux,0,64,64,64,1,,
,,,,,P006,001,2025-03-17_22h45.34.937,Emotion.Memoire.2024,2024.1.5,MacIntel,59.88023952,,,,,,,,,,,,,,,DISTRACTEURS-40/DIST.FIXES-20/10.NÉGATIFS/Dist.fix.negatif2.mp4,,,,,,,,,,,,1220.8063,1222.1123,-0.510993924,-0.279157986,1,0,0,1.3051,Faux,0,65,65,65,1,,
,,,,,P006,001,2025-03-17_22h45.34.937,Emotion.Memoire.2024,2024.1.5,MacIntel,59.88023952,,,,,,,,,,,,,,,IMAGES_EXP_mp4_40/FIXES/FIX-NEUTRE-mp4/image10.mp4,,,,,,,,,,,,1222.1131,1223.6223,0.490381944,-0.296753472,1,0,0,1.5064,Vrai,0,66,66,66,1,,
,,,,,P006,001,2025-03-17_22h45.34.937,Emotion.Memoire.2024,2024.1.5,MacIntel,59.88023952,,,,,,,,,,,,,,,IMAGES_EXP_mp4_40/FIXES/FIX-NEGATIF-mp4/Image1.mp4,,,,,,,,,,,,1223.6227,1224.5557,0.488298611,-0.289418403,1,0,0,0.931,Vrai,0,67,67,67,1,,
,,,,,P006,001,2025-03-17_22h45.34.937,Emotion.Memoire.2024,2024.1.5,MacIntel,59.88023952,,,,,,,,,,,,,,,IMAGES_EXP_mp4_40/ANIMEES/10- ANIMEES --NEGATIVES /Video3.mp4,,,,,,,,,,,,1224.5561,1225.3555,0.488298611,-0.289418403,1,0,0,0.7982,Vrai,0,68,68,68,1,,
,,,,,P006,001,2025-03-17_22h45.34.937,Emotion.Memoire.2024,2024.1.5,MacIntel,59.88023952,,,,,,,,,,,,,,,DISTRACTEURS-40/DIST.FIXES-20/10.NEUTRES /Dist.fix.neutre1.mp4,,,,,,,,,,,,1225.3559,1226.6723,-0.547456597,-0.294283854,1,0,0,1.315,Faux,0,69,69,69,1,,
,,,,,P006,001,2025-03-17_22h45.34.937,Emotion.Memoire.2024,2024.1.5,MacIntel,59.88023952,,,,,,,,,,,,,,,DISTRACTEURS-40/DIST.FIXES-20/10.NÉGATIFS/Dist.fix.negatif3.mp4,,,,,,,,,,,,1226.6728,1228.9555,-0.490052083,-0.289548611,1,0,0,2.282,Faux,0,70,70,70,1,,
,,,,,P006,001,2025-03-17_22h45.34.937,Emotion.Memoire.2024,2024.1.5,MacIntel,59.88023952,,,,,,,,,,,,,,,IMAGES_EXP_mp4_40/FIXES/FIX-NEUTRE-mp4/image3.mp4,,,,,,,,,,,,1228.9562,1230.6056,0.444375,-0.277196181,1,0,0,1.6488,Vrai,0,71,71,71,1,,
,,,,,P006,001,2025-03-17_22h45.34.937,Emotion.Memoire.2024,2024.1.5,MacIntel,59.88023952,,,,,,,,,,,,,,,IMAGES_EXP_mp4_40/FIXES/FIX-NEGATIF-mp4/Image10.mp4,,,,,,,,,,,,1230.6061,1231.5725,0.444513889,-0.277335069,1,0,0,0.9643,Vrai,0,72,72,72,1,,
,,,,,P006,001,2025-03-17_22h45.34.937,Emotion.Memoire.2024,2024.1.5,MacIntel,59.88023952,,,,,,,,,,,,,,,IMAGES_EXP_mp4_40/FIXES/FIX-NEUTRE-mp4/image1.mp4,,,,,,,,,,,,1231.5749,1232.4907,0.444513889,-0.277335069,1,0,0,0.912,Vrai,0,73,73,73,1,,
,,,,,P006,001,2025-03-17_22h45.34.937,Emotion.Memoire.2024,2024.1.5,MacIntel,59.88023952,,,,,,,,,,,,,,,DISTRACTEURS-40/DIST.ANIMÉES-20/10.NEUTRES/Dist.animee.neutre8.mp4,,,,,,,,,,,,1232.4911,1234.7893,-0.450164931,-0.276488715,1,0,0,2.2973,Faux,0,74,74,74,1,,
,,,,,P006,001,2025-03-17_22h45.34.937,Emotion.Memoire.2024,2024.1.5,MacIntel,59.88023952,,,,,,,,,,,,,,,DISTRACTEURS-40/DIST.FIXES-20/10.NÉGATIFS/Dist.fix.negatif4.mp4,,,,,,,,,,,,1234.7899,1237.0557,-0.450164931,-0.276228299,1,0,0,2.2614,Faux,0,75,75,75,1,,
,,,,,P006,001,2025-03-17_22h45.34.937,Emotion.Memoire.2024,2024.1.5,MacIntel,59.88023952,,,,,,,,,,,,,,,DISTRACTEURS-40/DIST.ANIMÉES-20/10.NÉGATIFS/Dist.animee.negatif3.mp4,,,,,,,,,,,,1237.0571,1238.189,-0.450164931,-0.276228299,1,0,0,1.1311,Faux,0,76,76,76,1,,
,,,,,P006,001,2025-03-17_22h45.34.937,Emotion.Memoire.2024,2024.1.5,MacIntel,59.88023952,,,,,,,,,,,,,,,DISTRACTEURS-40/DIST.ANIMÉES-20/10.NEUTRES/Dist.animee.neutre2.mp4,,,,,,,,,,,,1238.1893,1239.1224,-0.450164931,-0.276228299,1,0,0,0.93,Faux,0,77,77,77,1,,
,,,,,P006,001,2025-03-17_22h45.34.937,Emotion.Memoire.2024,2024.1.5,MacIntel,59.88023952,,,,,,,,,,,,,,,IMAGES_EXP_mp4_40/ANIMEES/10- ANIMEES --NEGATIVES /Video9.mp4,,,,,,,,,,,,1239.1228,1240.8892,0.454583333,-0.334049479,1,0,0,1.7593,Vrai,0,78,78,78,1,,
,,,,,P006,001,2025-03-17_22h45.34.937,Emotion.Memoire.2024,2024.1.5,MacIntel,59.88023952,,,,,,,,,,,,,,,DISTRACTEURS-40/DIST.ANIMÉES-20/10.NEUTRES/Dist.animee.neutre7.mp4,,,,,,,,,,,,1240.8896,1242.4557,-0.492317708,-0.261679687,1,0,0,1.5657,Faux,0,79,79,79,1,,
,,,,,P006,001,2025-03-17_22h45.34.937,Emotion.Memoire.2024,2024.1.5,MacIntel,59.88023952,,,,,,,,,,,,,,,,,,,,,,,,,,,,,,,,,,,,,,,,,1242.4591,1257.4571
