Consigne.started,Consigne.stopped,Key_resp1.keys,Key_resp1.rt,Key_resp1.duration,participant,session,date,expName,psychopyVersion,OS,frameRate,IMAGES.started,IMAGES.stopped,SAM.started,SAM.stopped,Plaisir.response,Plaisir.rt,EVEIL.response,EVEIL.rt,trials.thisRepN,trials.thisTrialN,trials.thisN,trials.thisIndex,trials.ran,ImageFile,ImagesDistracteursFile,Test,Calcul.started,Calcul.stopped,Key_response.keys,Key_response.rt,Key_response.duration,Consigne_reco.started,Consigne_reco.stopped,key_resp_reconn.keys,key_resp_reconn.rt,key_resp_reconn.duration,DISTRACTEURS.started,DISTRACTEURS.stopped,mouse.x,mouse.y,mouse.leftButton,mouse.midButton,mouse.rightButton,mouse.time,mouse.clicked_name,trials_2.thisRepN,trials_2.thisTrialN,trials_2.thisN,trials_2.thisIndex,trials_2.ran,MERCI.started,MERCI.stopped
0.0006,79.6404,space,79.5301,,P007,001,2025-01-11_14h13.47.511,Emotion.Memoire.2024,2024.1.5,Win32,60.24096386,,,,,,,,,,,,,,,,,,,,,,,,,,,,,,,,,,,,,,,,,,
,,,,,P007,001,2025-01-11_14h13.47.511,Emotion.Memoire.2024,2024.1.5,Win32,60.24096386,79.6484,89.6479,89.6484,111.144,2,4.5244,7,21.4867,0,0,0,0,1,IMAGES_EXP_mp4_40/FIXES/FIX-NEGATIF-mp4/Image6.mp4,DISTRACTEURS-40/DIST.ANIMÉES-20/10.NÉGATIFS/Dist.animee.negatif10.mp4,IMAGES_EXP_mp4_40/ANIMEES/10- ANIMEES --NEGATIVES /Video1.mp4,,,,,,,,,,,,,,,,,,,,,,,,,,
,,,,,P007,001,2025-01-11_14h13.47.511,Emotion.Memoire.2024,2024.1.5,Win32,60.24096386,111.1444,121.1344,121.1346,133.7891,8,3.9202,3,12.6456,0,1,1,1,1,IMAGES_EXP_mp4_40/FIXES/FIX-NEUTRE-mp4/image9.mp4,DISTRACTEURS-40/DIST.ANIMÉES-20/10.NEUTRES/Dist.animee.neutre3.mp4,DISTRACTEURS-40/DIST.FIXES-20/10.NÉGATIFS/Dist.fix.negatif3.mp4,,,,,,,,,,,,,,,,,,,,,,,,,,
,,,,,P007,001,2025-01-11_14h13.47.511,Emotion.Memoire.2024,2024.1.5,Win32,60.24096386,133.7893,143.7795,143.78,151.6391,1,5.5767,8,7.8486,0,2,2,2,1,IMAGES_EXP_mp4_40/FIXES/FIX-NEGATIF-mp4/Image3.mp4,IMAGES_EXP_mp4_40/ANIMEES/10- ANIMEES --NEGATIVES /Video2.mp4,DISTRACTEURS-40/DIST.FIXES-20/10.NÉGATIFS/Dist.fix.negatif5.mp4,,,,,,,,,,,,,,,,,,,,,,,,,,
,,,,,P007,001,2025-01-11_14h13.47.511,Emotion.Memoire.2024,2024.1.5,Win32,60.24096386,151.6395,161.63,161.6303,168.1903,3,4.4942,7,6.5526,0,3,3,3,1,IMAGES_EXP_mp4_40/FIXES/FIX-NEGATIF-mp4/Image4.mp4,IMAGES_EXP_mp4_40/FIXES/FIX-NEUTRE-mp4/image6.mp4,,,,,,,,,,,,,,,,,,,,,,,,,,,
,,,,,P007,001,2025-01-11_14h13.47.511,Emotion.Memoire.2024,2024.1.5,Win32,60.24096386,168.1907,178.1809,178.1811,182.9764,5,3.7384,5,4.7913,0,4,4,4,1,IMAGES_EXP_mp4_40/FIXES/FIX-NEGATIF-mp4/Image10.mp4,IMAGES_EXP_mp4_40/FIXES/FIX-NEUTRE-mp4/image2.mp4,,,,,,,,,,,,,,,,,,,,,,,,,,,
,,,,,P007,001,2025-01-11_14h13.47.511,Emotion.Memoire.2024,2024.1.5,Win32,60.24096386,182.9766,192.9666,192.9668,203.1577,7,3.1041,2,10.1833,0,5,5,5,1,IMAGES_EXP_mp4_40/ANIMEES/11-ANIMEES --- NEUTRES /video10.mp4,DISTRACTEURS-40/DIST.FIXES-20/10.NEUTRES /Dist.fix.neutre7.mp4,,,,,,,,,,,,,,,,,,,,,,,,,,,
,,,,,P007,001,2025-01-11_14h13.47.511,Emotion.Memoire.2024,2024.1.5,Win32,60.24096386,203.158,213.1482,213.1485,224.6373,8,3.9022,5,11.4801,0,6,6,6,1,IMAGES_EXP_mp4_40/ANIMEES/10- ANIMEES --NEGATIVES /Video4.mp4,DISTRACTEURS-40/DIST.ANIMÉES-20/10.NÉGATIFS/Dist.animee.negatif4.mp4,,,,,,,,,,,,,,,,,,,,,,,,,,,
,,,,,P007,001,2025-01-11_14h13.47.511,Emotion.Memoire.2024,2024.1.5,Win32,60.24096386,224.6376,234.6276,234.6279,246.2334,6,9.2493,4,11.6007,0,7,7,7,1,IMAGES_EXP_mp4_40/FIXES/FIX-NEUTRE-mp4/image10.mp4,IMAGES_EXP_mp4_40/FIXES/FIX-NEGATIF-mp4/Image2.mp4,,,,,,,,,,,,,,,,,,,,,,,,,,,
,,,,,P007,001,2025-01-11_14h13.47.511,Emotion.Memoire.2024,2024.1.5,Win32,60.24096386,246.2338,256.2249,256.2251,281.2507,7,1.6873,6,25.0174,0,8,8,8,1,IMAGES_EXP_mp4_40/ANIMEES/10- ANIMEES --NEGATIVES /Video1.mp4,IMAGES_EXP_mp4_40/FIXES/FIX-NEGATIF-mp4/Image9.mp4,,,,,,,,,,,,,,,,,,,,,,,,,,,
,,,,,P007,001,2025-01-11_14h13.47.511,Emotion.Memoire.2024,2024.1.5,Win32,60.24096386,281.251,291.2417,291.2419,300.1351,4,3.1785,6,8.8904,0,9,9,9,1,IMAGES_EXP_mp4_40/FIXES/FIX-NEUTRE-mp4/image4.mp4,DISTRACTEURS-40/DIST.FIXES-20/10.NEUTRES /Dist.fix.neutre8.mp4,,,,,,,,,,,,,,,,,,,,,,,,,,,
,,,,,P007,001,2025-01-11_14h13.47.511,Emotion.Memoire.2024,2024.1.5,Win32,60.24096386,300.1354,310.1246,310.1249,318.5663,5,2.255,5,8.431,0,10,10,10,1,IMAGES_EXP_mp4_40/ANIMEES/11-ANIMEES --- NEUTRES /video6.mp4,DISTRACTEURS-40/DIST.ANIMÉES-20/10.NÉGATIFS/Dist.animee.negatif8.mp4,,,,,,,,,,,,,,,,,,,,,,,,,,,
,,,,,P007,001,2025-01-11_14h13.47.511,Emotion.Memoire.2024,2024.1.5,Win32,60.24096386,318.5667,328.5603,328.5607,337.1818,4,4.416,7,8.6112,0,11,11,11,1,IMAGES_EXP_mp4_40/ANIMEES/11-ANIMEES --- NEUTRES /video9.mp4,IMAGES_EXP_mp4_40/ANIMEES/11-ANIMEES --- NEUTRES /video8.mp4,,,,,,,,,,,,,,,,,,,,,,,,,,,
,,,,,P007,001,2025-01-11_14h13.47.511,Emotion.Memoire.2024,2024.1.5,Win32,60.24096386,337.182,347.1726,347.1727,357.7622,8,1.8399,2,10.5837,0,12,12,12,1,IMAGES_EXP_mp4_40/FIXES/FIX-NEUTRE-mp4/image8.mp4,IMAGES_EXP_mp4_40/ANIMEES/10- ANIMEES --NEGATIVES /Video8.mp4,,,,,,,,,,,,,,,,,,,,,,,,,,,
,,,,,P007,001,2025-01-11_14h13.47.511,Emotion.Memoire.2024,2024.1.5,Win32,60.24096386,357.7626,367.7532,367.7534,376.9779,7,6.9505,5,9.2185,0,13,13,13,1,IMAGES_EXP_mp4_40/ANIMEES/11-ANIMEES --- NEUTRES /video5.mp4,DISTRACTEURS-40/DIST.FIXES-20/10.NÉGATIFS/Dist.fix.negatif8.mp4,,,,,,,,,,,,,,,,,,,,,,,,,,,
,,,,,P007,001,2025-01-11_14h13.47.511,Emotion.Memoire.2024,2024.1.5,Win32,60.24096386,376.9783,386.9688,386.9689,392.9632,7,3.968,5,5.9842,0,14,14,14,1,IMAGES_EXP_mp4_40/ANIMEES/11-ANIMEES --- NEUTRES /video1.mp4,DISTRACTEURS-40/DIST.FIXES-20/10.NEUTRES /Dist.fix.neutre2.mp4,,,,,,,,,,,,,,,,,,,,,,,,,,,
,,,,,P007,001,2025-01-11_14h13.47.511,Emotion.Memoire.2024,2024.1.5,Win32,60.24096386,392.9635,402.2715,402.2715,419.3555,4,9.3163,6,17.0734,0,15,15,15,1,IMAGES_EXP_mp4_40/ANIMEES/10- ANIMEES --NEGATIVES /Video9.mp4,DISTRACTEURS-40/DIST.ANIMÉES-20/10.NEUTRES/Dist.animee.neutre10.mp4,,,,,,,,,,,,,,,,,,,,,,,,,,,
,,,,,P007,001,2025-01-11_14h13.47.511,Emotion.Memoire.2024,2024.1.5,Win32,60.24096386,419.3558,428.197,428.1971,431.3279,1,1.5716,9,3.1266,0,16,16,16,1,IMAGES_EXP_mp4_40/ANIMEES/10- ANIMEES --NEGATIVES /Video8.mp4,DISTRACTEURS-40/DIST.FIXES-20/10.NEUTRES /Dist.fix.neutre5.mp4,,,,,,,,,,,,,,,,,,,,,,,,,,,
,,,,,P007,001,2025-01-11_14h13.47.511,Emotion.Memoire.2024,2024.1.5,Win32,60.24096386,431.3282,441.3178,441.318,444.3155,1,1.406,9,2.9861,0,17,17,17,1,IMAGES_EXP_mp4_40/FIXES/FIX-NEGATIF-mp4/Image5.mp4,DISTRACTEURS-40/DIST.ANIMÉES-20/10.NEUTRES/Dist.animee.neutre1.mp4,,,,,,,,,,,,,,,,,,,,,,,,,,,
,,,,,P007,001,2025-01-11_14h13.47.511,Emotion.Memoire.2024,2024.1.5,Win32,60.24096386,444.3158,454.3056,454.3058,468.8095,7,3.9555,3,14.4981,0,18,18,18,1,IMAGES_EXP_mp4_40/ANIMEES/11-ANIMEES --- NEUTRES /video2.mp4,IMAGES_EXP_mp4_40/FIXES/FIX-NEUTRE-mp4/image5.mp4,,,,,,,,,,,,,,,,,,,,,,,,,,,
,,,,,P007,001,2025-01-11_14h13.47.511,Emotion.Memoire.2024,2024.1.5,Win32,60.24096386,468.8099,478.7997,478.8,485.8927,1,3.336,9,7.0846,0,19,19,19,1,IMAGES_EXP_mp4_40/ANIMEES/10- ANIMEES --NEGATIVES /Video7.mp4,IMAGES_EXP_mp4_40/FIXES/FIX-NEUTRE-mp4/image7.mp4,,,,,,,,,,,,,,,,,,,,,,,,,,,
,,,,,P007,001,2025-01-11_14h13.47.511,Emotion.Memoire.2024,2024.1.5,Win32,60.24096386,485.893,495.883,495.8833,502.5939,9,2.1295,1,6.7017,0,20,20,20,1,IMAGES_EXP_mp4_40/FIXES/FIX-NEUTRE-mp4/image5.mp4,IMAGES_EXP_mp4_40/ANIMEES/10- ANIMEES --NEGATIVES /Video10.mp4,,,,,,,,,,,,,,,,,,,,,,,,,,,
,,,,,P007,001,2025-01-11_14h13.47.511,Emotion.Memoire.2024,2024.1.5,Win32,60.24096386,502.5941,512.5842,512.5843,525.8218,6,9.9718,2,13.2361,0,21,21,21,1,IMAGES_EXP_mp4_40/ANIMEES/11-ANIMEES --- NEUTRES /video3.mp4,IMAGES_EXP_mp4_40/ANIMEES/10- ANIMEES --NEGATIVES /Video4.mp4,,,,,,,,,,,,,,,,,,,,,,,,,,,
,,,,,P007,001,2025-01-11_14h13.47.511,Emotion.Memoire.2024,2024.1.5,Win32,60.24096386,525.8221,535.8126,535.8129,543.0725,3,5.0857,7,7.2489,0,22,22,22,1,IMAGES_EXP_mp4_40/ANIMEES/10- ANIMEES --NEGATIVES /Video5.mp4,IMAGES_EXP_mp4_40/ANIMEES/10- ANIMEES --NEGATIVES /Video5.mp4,,,,,,,,,,,,,,,,,,,,,,,,,,,
,,,,,P007,001,2025-01-11_14h13.47.511,Emotion.Memoire.2024,2024.1.5,Win32,60.24096386,543.0728,553.063,553.0633,565.502,4,7.5327,5,12.4358,0,23,23,23,1,IMAGES_EXP_mp4_40/ANIMEES/11-ANIMEES --- NEUTRES /video7.mp4,IMAGES_EXP_mp4_40/ANIMEES/11-ANIMEES --- NEUTRES /video6.mp4,,,,,,,,,,,,,,,,,,,,,,,,,,,
,,,,,P007,001,2025-01-11_14h13.47.511,Emotion.Memoire.2024,2024.1.5,Win32,60.24096386,565.5025,575.4922,575.4925,599.6529,4,11.5831,7,24.1517,0,24,24,24,1,IMAGES_EXP_mp4_40/FIXES/FIX-NEGATIF-mp4/Image8.mp4,IMAGES_EXP_mp4_40/ANIMEES/11-ANIMEES --- NEUTRES /video5.mp4,,,,,,,,,,,,,,,,,,,,,,,,,,,
,,,,,P007,001,2025-01-11_14h13.47.511,Emotion.Memoire.2024,2024.1.5,Win32,60.24096386,599.6534,609.6434,609.6436,616.171,1,3.3197,8,6.5201,0,25,25,25,1,IMAGES_EXP_mp4_40/FIXES/FIX-NEGATIF-mp4/Image2.mp4,DISTRACTEURS-40/DIST.ANIMÉES-20/10.NÉGATIFS/Dist.animee.negatif5.mp4,,,,,,,,,,,,,,,,,,,,,,,,,,,
,,,,,P007,001,2025-01-11_14h13.47.511,Emotion.Memoire.2024,2024.1.5,Win32,60.24096386,616.1717,626.1611,626.1614,635.9185,7,3.3376,3,9.7537,0,26,26,26,1,IMAGES_EXP_mp4_40/FIXES/FIX-NEUTRE-mp4/image7.mp4,DISTRACTEURS-40/DIST.ANIMÉES-20/10.NEUTRES/Dist.animee.neutre4.mp4,,,,,,,,,,,,,,,,,,,,,,,,,,,
,,,,,P007,001,2025-01-11_14h13.47.511,Emotion.Memoire.2024,2024.1.5,Win32,60.24096386,635.9188,645.9093,645.9094,655.0012,8,1.8461,1,9.0834,0,27,27,27,1,IMAGES_EXP_mp4_40/ANIMEES/11-ANIMEES --- NEUTRES /video4.mp4,DISTRACTEURS-40/DIST.FIXES-20/10.NEUTRES /Dist.fix.neutre10.mp4,,,,,,,,,,,,,,,,,,,,,,,,,,,
,,,,,P007,001,2025-01-11_14h13.47.511,Emotion.Memoire.2024,2024.1.5,Win32,60.24096386,655.0014,664.9918,664.992,677.2802,5,9.3489,7,12.2776,0,28,28,28,1,IMAGES_EXP_mp4_40/FIXES/FIX-NEGATIF-mp4/Image1.mp4,IMAGES_EXP_mp4_40/FIXES/FIX-NEGATIF-mp4/Image3.mp4,,,,,,,,,,,,,,,,,,,,,,,,,,,
,,,,,P007,001,2025-01-11_14h13.47.511,Emotion.Memoire.2024,2024.1.5,Win32,60.24096386,677.2805,687.2715,687.2717,693.3812,2,1.7383,6,6.0993,0,29,29,29,1,IMAGES_EXP_mp4_40/ANIMEES/10- ANIMEES --NEGATIVES /Video10.mp4,DISTRACTEURS-40/DIST.FIXES-20/10.NÉGATIFS/Dist.fix.negatif6.mp4,,,,,,,,,,,,,,,,,,,,,,,,,,,
,,,,,P007,001,2025-01-11_14h13.47.511,Emotion.Memoire.2024,2024.1.5,Win32,60.24096386,693.3816,703.3725,703.3727,711.4153,7,5.9186,3,8.0395,0,30,30,30,1,IMAGES_EXP_mp4_40/ANIMEES/11-ANIMEES --- NEUTRES /video8.mp4,IMAGES_EXP_mp4_40/ANIMEES/11-ANIMEES --- NEUTRES /video1.mp4,,,,,,,,,,,,,,,,,,,,,,,,,,,
,,,,,P007,001,2025-01-11_14h13.47.511,Emotion.Memoire.2024,2024.1.5,Win32,60.24096386,711.4156,721.4056,721.406,728.3668,8,1.7099,1,6.9573,0,31,31,31,1,IMAGES_EXP_mp4_40/FIXES/FIX-NEUTRE-mp4/image6.mp4,IMAGES_EXP_mp4_40/FIXES/FIX-NEUTRE-mp4/image9.mp4,,,,,,,,,,,,,,,,,,,,,,,,,,,
,,,,,P007,001,2025-01-11_14h13.47.511,Emotion.Memoire.2024,2024.1.5,Win32,60.24096386,728.3672,738.3564,738.3567,746.8979,3,6.1031,8,8.5307,0,32,32,32,1,IMAGES_EXP_mp4_40/ANIMEES/10- ANIMEES --NEGATIVES /Video2.mp4,IMAGES_EXP_mp4_40/ANIMEES/10- ANIMEES --NEGATIVES /Video6.mp4,,,,,,,,,,,,,,,,,,,,,,,,,,,
,,,,,P007,001,2025-01-11_14h13.47.511,Emotion.Memoire.2024,2024.1.5,Win32,60.24096386,746.8983,756.8938,756.894,760.2196,1,1.4213,7,3.3173,0,33,33,33,1,IMAGES_EXP_mp4_40/ANIMEES/10- ANIMEES --NEGATIVES /Video3.mp4,IMAGES_EXP_mp4_40/ANIMEES/11-ANIMEES --- NEUTRES /video3.mp4,,,,,,,,,,,,,,,,,,,,,,,,,,,
,,,,,P007,001,2025-01-11_14h13.47.511,Emotion.Memoire.2024,2024.1.5,Win32,60.24096386,760.2199,770.2098,770.2101,777.0364,8,1.2973,3,6.8171,0,34,34,34,1,IMAGES_EXP_mp4_40/FIXES/FIX-NEUTRE-mp4/image2.mp4,DISTRACTEURS-40/DIST.ANIMÉES-20/10.NÉGATIFS/Dist.animee.negatif7.mp4,,,,,,,,,,,,,,,,,,,,,,,,,,,
,,,,,P007,001,2025-01-11_14h13.47.511,Emotion.Memoire.2024,2024.1.5,Win32,60.24096386,777.0369,787.0272,787.0277,794.9536,8,5.8875,1,7.9193,0,35,35,35,1,IMAGES_EXP_mp4_40/FIXES/FIX-NEUTRE-mp4/image3.mp4,IMAGES_EXP_mp4_40/ANIMEES/11-ANIMEES --- NEUTRES /video9.mp4,,,,,,,,,,,,,,,,,,,,,,,,,,,
,,,,,P007,001,2025-01-11_14h13.47.511,Emotion.Memoire.2024,2024.1.5,Win32,60.24096386,794.9542,804.9337,804.9344,808.9734,1,1.8999,8,4.0291,0,36,36,36,1,IMAGES_EXP_mp4_40/FIXES/FIX-NEGATIF-mp4/Image9.mp4,DISTRACTEURS-40/DIST.ANIMÉES-20/10.NEUTRES/Dist.animee.neutre6.mp4,,,,,,,,,,,,,,,,,,,,,,,,,,,
,,,,,P007,001,2025-01-11_14h13.47.511,Emotion.Memoire.2024,2024.1.5,Win32,60.24096386,808.9736,818.9386,818.9389,825.641,1,1.3523,5,6.6908,0,37,37,37,1,IMAGES_EXP_mp4_40/FIXES/FIX-NEGATIF-mp4/Image7.mp4,IMAGES_EXP_mp4_40/FIXES/FIX-NEGATIF-mp4/Image8.mp4,,,,,,,,,,,,,,,,,,,,,,,,,,,
,,,,,P007,001,2025-01-11_14h13.47.511,Emotion.Memoire.2024,2024.1.5,Win32,60.24096386,825.6413,835.6314,835.6318,843.3575,2,2.3042,8,7.7175,0,38,38,38,1,IMAGES_EXP_mp4_40/ANIMEES/10- ANIMEES --NEGATIVES /Video6.mp4,IMAGES_EXP_mp4_40/FIXES/FIX-NEUTRE-mp4/image8.mp4,,,,,,,,,,,,,,,,,,,,,,,,,,,
,,,,,P007,001,2025-01-11_14h13.47.511,Emotion.Memoire.2024,2024.1.5,Win32,60.24096386,843.3577,853.3484,853.3486,859.4593,3,4.2011,6,6.1033,0,39,39,39,1,IMAGES_EXP_mp4_40/FIXES/FIX-NEUTRE-mp4/image1.mp4,IMAGES_EXP_mp4_40/ANIMEES/11-ANIMEES --- NEUTRES /video7.mp4,,,,,,,,,,,,,,,,,,,,,,,,,,,
,,,,,P007,001,2025-01-11_14h13.47.511,Emotion.Memoire.2024,2024.1.5,Win32,60.24096386,,,,,,,,,,,,,,,,,859.4598,1524.9703,space,665.4798,,,,,,,,,,,,,,,,,,,,,,
,,,,,P007,001,2025-01-11_14h13.47.511,Emotion.Memoire.2024,2024.1.5,Win32,60.24096386,,,,,,,,,,,,,,,,,,,,,,1524.9703,1560.5363,space,35.4834,,,,,,,,,,,,,,,,,
,,,,,P007,001,2025-01-11_14h13.47.511,Emotion.Memoire.2024,2024.1.5,Win32,60.24096386,,,,,,,,,,,,,,IMAGES_EXP_mp4_40/FIXES/FIX-NEGATIF-mp4/Image6.mp4,DISTRACTEURS-40/DIST.ANIMÉES-20/10.NÉGATIFS/Dist.animee.negatif10.mp4,IMAGES_EXP_mp4_40/ANIMEES/10- ANIMEES --NEGATIVES /Video1.mp4,,,,,,,,,,,1560.541,1562.3523,-0.502595539,-0.30409347,1,0,0,1.809,Faux,0,0,0,0,1,,
,,,,,P007,001,2025-01-11_14h13.47.511,Emotion.Memoire.2024,2024.1.5,Win32,60.24096386,,,,,,,,,,,,,,IMAGES_EXP_mp4_40/FIXES/FIX-NEUTRE-mp4/image9.mp4,DISTRACTEURS-40/DIST.ANIMÉES-20/10.NEUTRES/Dist.animee.neutre3.mp4,DISTRACTEURS-40/DIST.FIXES-20/10.NÉGATIFS/Dist.fix.negatif3.mp4,,,,,,,,,,,1562.3531,1563.7508,-0.509997984,-0.30409347,1,0,0,1.3965,Faux,0,1,1,1,1,,
,,,,,P007,001,2025-01-11_14h13.47.511,Emotion.Memoire.2024,2024.1.5,Win32,60.24096386,,,,,,,,,,,,,,IMAGES_EXP_mp4_40/FIXES/FIX-NEGATIF-mp4/Image3.mp4,IMAGES_EXP_mp4_40/ANIMEES/10- ANIMEES --NEGATIVES /Video2.mp4,DISTRACTEURS-40/DIST.FIXES-20/10.NÉGATIFS/Dist.fix.negatif5.mp4,,,,,,,,,,,1563.7512,1565.2983,0.459725875,-0.294840463,1,0,0,1.5456,Vrai,0,2,2,2,1,,
,,,,,P007,001,2025-01-11_14h13.47.511,Emotion.Memoire.2024,2024.1.5,Win32,60.24096386,,,,,,,,,,,,,,IMAGES_EXP_mp4_40/FIXES/FIX-NEGATIF-mp4/Image4.mp4,IMAGES_EXP_mp4_40/FIXES/FIX-NEUTRE-mp4/image6.mp4,,,,,,,,,,,,1565.2989,1566.0639,0.459725875,-0.294840463,1,0,0,0.7638,Vrai,0,3,3,3,1,,
,,,,,P007,001,2025-01-11_14h13.47.511,Emotion.Memoire.2024,2024.1.5,Win32,60.24096386,,,,,,,,,,,,,,IMAGES_EXP_mp4_40/FIXES/FIX-NEGATIF-mp4/Image10.mp4,IMAGES_EXP_mp4_40/FIXES/FIX-NEUTRE-mp4/image2.mp4,,,,,,,,,,,,1566.0644,1566.8635,0.459725875,-0.294840463,1,0,0,0.798,Vrai,0,4,4,4,1,,
,,,,,P007,001,2025-01-11_14h13.47.511,Emotion.Memoire.2024,2024.1.5,Win32,60.24096386,,,,,,,,,,,,,,IMAGES_EXP_mp4_40/ANIMEES/11-ANIMEES --- NEUTRES /video10.mp4,DISTRACTEURS-40/DIST.FIXES-20/10.NEUTRES /Dist.fix.neutre7.mp4,,,,,,,,,,,,1566.8639,1568.2872,-0.422093645,-0.302242907,1,0,0,1.4222,Faux,0,5,5,5,1,,
,,,,,P007,001,2025-01-11_14h13.47.511,Emotion.Memoire.2024,2024.1.5,Win32,60.24096386,,,,,,,,,,,,,,IMAGES_EXP_mp4_40/ANIMEES/10- ANIMEES --NEGATIVES /Video4.mp4,DISTRACTEURS-40/DIST.ANIMÉES-20/10.NÉGATIFS/Dist.animee.negatif4.mp4,,,,,,,,,,,,1568.2878,1569.2882,-0.443375744,-0.277259585,1,0,0,0.9991,Faux,0,6,6,6,1,,
,,,,,P007,001,2025-01-11_14h13.47.511,Emotion.Memoire.2024,2024.1.5,Win32,60.24096386,,,,,,,,,,,,,,IMAGES_EXP_mp4_40/FIXES/FIX-NEUTRE-mp4/image10.mp4,IMAGES_EXP_mp4_40/FIXES/FIX-NEGATIF-mp4/Image2.mp4,,,,,,,,,,,,1569.2889,1570.3105,0.487484896,-0.285587359,1,0,0,1.0206,Vrai,0,7,7,7,1,,
,,,,,P007,001,2025-01-11_14h13.47.511,Emotion.Memoire.2024,2024.1.5,Win32,60.24096386,,,,,,,,,,,,,,IMAGES_EXP_mp4_40/ANIMEES/10- ANIMEES --NEGATIVES /Video1.mp4,IMAGES_EXP_mp4_40/FIXES/FIX-NEGATIF-mp4/Image9.mp4,,,,,,,,,,,,1570.3111,1571.4079,0.419937617,-0.294840463,1,0,0,1.0957,Vrai,0,8,8,8,1,,
,,,,,P007,001,2025-01-11_14h13.47.511,Emotion.Memoire.2024,2024.1.5,Win32,60.24096386,,,,,,,,,,,,,,IMAGES_EXP_mp4_40/FIXES/FIX-NEUTRE-mp4/image4.mp4,DISTRACTEURS-40/DIST.FIXES-20/10.NEUTRES /Dist.fix.neutre8.mp4,,,,,,,,,,,,1571.4085,1572.5819,-0.442450415,-0.294840463,1,0,0,1.1722,Faux,0,9,9,9,1,,
,,,,,P007,001,2025-01-11_14h13.47.511,Emotion.Memoire.2024,2024.1.5,Win32,60.24096386,,,,,,,,,,,,,,IMAGES_EXP_mp4_40/ANIMEES/11-ANIMEES --- NEUTRES /video6.mp4,DISTRACTEURS-40/DIST.ANIMÉES-20/10.NÉGATIFS/Dist.animee.negatif8.mp4,,,,,,,,,,,,1572.5828,1573.3569,-0.442450415,-0.294840463,1,0,0,0.7725,Faux,0,10,10,10,1,,
,,,,,P007,001,2025-01-11_14h13.47.511,Emotion.Memoire.2024,2024.1.5,Win32,60.24096386,,,,,,,,,,,,,,IMAGES_EXP_mp4_40/ANIMEES/11-ANIMEES --- NEUTRES /video9.mp4,IMAGES_EXP_mp4_40/ANIMEES/11-ANIMEES --- NEUTRES /video8.mp4,,,,,,,,,,,,1573.3573,1574.5234,0.464352282,-0.285587359,1,0,0,1.1646,Vrai,0,11,11,11,1,,
,,,,,P007,001,2025-01-11_14h13.47.511,Emotion.Memoire.2024,2024.1.5,Win32,60.24096386,,,,,,,,,,,,,,IMAGES_EXP_mp4_40/FIXES/FIX-NEUTRE-mp4/image8.mp4,IMAGES_EXP_mp4_40/ANIMEES/10- ANIMEES --NEGATIVES /Video8.mp4,,,,,,,,,,,,1574.5238,1575.5883,0.530974666,-0.303168236,1,0,0,1.0635,Vrai,0,12,12,12,1,,
,,,,,P007,001,2025-01-11_14h13.47.511,Emotion.Memoire.2024,2024.1.5,Win32,60.24096386,,,,,,,,,,,,,,IMAGES_EXP_mp4_40/ANIMEES/11-ANIMEES --- NEUTRES /video5.mp4,DISTRACTEURS-40/DIST.FIXES-20/10.NÉGATIFS/Dist.fix.negatif8.mp4,,,,,,,,,,,,1575.5887,1577.3367,-0.469284396,-0.303168236,1,0,0,1.7472,Faux,0,13,13,13,1,,
,,,,,P007,001,2025-01-11_14h13.47.511,Emotion.Memoire.2024,2024.1.5,Win32,60.24096386,,,,,,,,,,,,,,IMAGES_EXP_mp4_40/ANIMEES/11-ANIMEES --- NEUTRES /video1.mp4,DISTRACTEURS-40/DIST.FIXES-20/10.NEUTRES /Dist.fix.neutre2.mp4,,,,,,,,,,,,1577.3371,1579.2678,-0.460956622,-0.301317625,1,0,0,1.9296,Faux,0,14,14,14,1,,
,,,,,P007,001,2025-01-11_14h13.47.511,Emotion.Memoire.2024,2024.1.5,Win32,60.24096386,,,,,,,,,,,,,,IMAGES_EXP_mp4_40/ANIMEES/10- ANIMEES --NEGATIVES /Video9.mp4,DISTRACTEURS-40/DIST.ANIMÉES-20/10.NEUTRES/Dist.animee.neutre10.mp4,,,,,,,,,,,,1579.2687,1580.6342,-0.464657844,-0.292989707,1,0,0,1.3644,Faux,0,15,15,15,1,,
,,,,,P007,001,2025-01-11_14h13.47.511,Emotion.Memoire.2024,2024.1.5,Win32,60.24096386,,,,,,,,,,,,,,IMAGES_EXP_mp4_40/ANIMEES/10- ANIMEES --NEGATIVES /Video8.mp4,DISTRACTEURS-40/DIST.FIXES-20/10.NEUTRES /Dist.fix.neutre5.mp4,,,,,,,,,,,,1580.6349,1581.5177,-0.464657844,-0.292989707,1,0,0,0.8817,Faux,0,16,16,16,1,,
,,,,,P007,001,2025-01-11_14h13.47.511,Emotion.Memoire.2024,2024.1.5,Win32,60.24096386,,,,,,,,,,,,,,IMAGES_EXP_mp4_40/FIXES/FIX-NEGATIF-mp4/Image5.mp4,DISTRACTEURS-40/DIST.ANIMÉES-20/10.NEUTRES/Dist.animee.neutre1.mp4,,,,,,,,,,,,1581.5184,1582.7483,-0.464657844,-0.292989707,1,0,0,1.2285,Faux,0,17,17,17,1,,
,,,,,P007,001,2025-01-11_14h13.47.511,Emotion.Memoire.2024,2024.1.5,Win32,60.24096386,,,,,,,,,,,,,,IMAGES_EXP_mp4_40/ANIMEES/11-ANIMEES --- NEUTRES /video2.mp4,IMAGES_EXP_mp4_40/FIXES/FIX-NEUTRE-mp4/image5.mp4,,,,,,,,,,,,1582.7489,1583.7474,0.521721562,-0.295765744,1,0,0,0.9976,Vrai,0,18,18,18,1,,
,,,,,P007,001,2025-01-11_14h13.47.511,Emotion.Memoire.2024,2024.1.5,Win32,60.24096386,,,,,,,,,,,,,,IMAGES_EXP_mp4_40/ANIMEES/10- ANIMEES --NEGATIVES /Video7.mp4,IMAGES_EXP_mp4_40/FIXES/FIX-NEUTRE-mp4/image7.mp4,,,,,,,,,,,,1583.7479,1584.8294,0.493962059,-0.290213911,1,0,0,1.0806,Vrai,0,19,19,19,1,,
,,,,,P007,001,2025-01-11_14h13.47.511,Emotion.Memoire.2024,2024.1.5,Win32,60.24096386,,,,,,,,,,,,,,IMAGES_EXP_mp4_40/FIXES/FIX-NEUTRE-mp4/image5.mp4,IMAGES_EXP_mp4_40/ANIMEES/10- ANIMEES --NEGATIVES /Video10.mp4,,,,,,,,,,,,1584.83,1585.5627,0.485634526,-0.290213911,1,0,0,0.7319,Vrai,0,20,20,20,1,,
,,,,,P007,001,2025-01-11_14h13.47.511,Emotion.Memoire.2024,2024.1.5,Win32,60.24096386,,,,,,,,,,,,,,IMAGES_EXP_mp4_40/ANIMEES/11-ANIMEES --- NEUTRES /video3.mp4,IMAGES_EXP_mp4_40/ANIMEES/10- ANIMEES --NEGATIVES /Video4.mp4,,,,,,,,,,,,1585.5632,1586.4615,0.500439221,-0.290213911,1,0,0,0.8974,Vrai,0,21,21,21,1,,
,,,,,P007,001,2025-01-11_14h13.47.511,Emotion.Memoire.2024,2024.1.5,Win32,60.24096386,,,,,,,,,,,,,,IMAGES_EXP_mp4_40/ANIMEES/10- ANIMEES --NEGATIVES /Video5.mp4,IMAGES_EXP_mp4_40/ANIMEES/10- ANIMEES --NEGATIVES /Video5.mp4,,,,,,,,,,,,1586.462,1587.3621,0.500439221,-0.290213911,1,0,0,0.8991,Vrai,0,22,22,22,1,,
,,,,,P007,001,2025-01-11_14h13.47.511,Emotion.Memoire.2024,2024.1.5,Win32,60.24096386,,,,,,,,,,,,,,IMAGES_EXP_mp4_40/ANIMEES/11-ANIMEES --- NEUTRES /video7.mp4,IMAGES_EXP_mp4_40/ANIMEES/11-ANIMEES --- NEUTRES /video6.mp4,,,,,,,,,,,,1587.3627,1588.5101,0.49303697,-0.289288581,1,0,0,1.1464,Vrai,0,23,23,23,1,,
,,,,,P007,001,2025-01-11_14h13.47.511,Emotion.Memoire.2024,2024.1.5,Win32,60.24096386,,,,,,,,,,,,,,IMAGES_EXP_mp4_40/FIXES/FIX-NEGATIF-mp4/Image8.mp4,IMAGES_EXP_mp4_40/ANIMEES/11-ANIMEES --- NEUTRES /video5.mp4,,,,,,,,,,,,1588.5107,1589.409,0.49303697,-0.289288581,1,0,0,0.8971,Vrai,0,24,24,24,1,,
,,,,,P007,001,2025-01-11_14h13.47.511,Emotion.Memoire.2024,2024.1.5,Win32,60.24096386,,,,,,,,,,,,,,IMAGES_EXP_mp4_40/FIXES/FIX-NEGATIF-mp4/Image2.mp4,DISTRACTEURS-40/DIST.ANIMÉES-20/10.NÉGATIFS/Dist.animee.negatif5.mp4,,,,,,,,,,,,1589.4094,1590.8412,-0.353620746,-0.303168236,1,0,0,0.9968,Faux,0,25,25,25,1,,
,,,,,P007,001,2025-01-11_14h13.47.511,Emotion.Memoire.2024,2024.1.5,Win32,60.24096386,,,,,,,,,,,,,,IMAGES_EXP_mp4_40/FIXES/FIX-NEUTRE-mp4/image7.mp4,DISTRACTEURS-40/DIST.ANIMÉES-20/10.NEUTRES/Dist.animee.neutre4.mp4,,,,,,,,,,,,1590.8418,1591.7568,-0.424869537,-0.298541685,1,0,0,0.913,Faux,0,26,26,26,1,,
,,,,,P007,001,2025-01-11_14h13.47.511,Emotion.Memoire.2024,2024.1.5,Win32,60.24096386,,,,,,,,,,,,,,IMAGES_EXP_mp4_40/ANIMEES/11-ANIMEES --- NEUTRES /video4.mp4,DISTRACTEURS-40/DIST.FIXES-20/10.NEUTRES /Dist.fix.neutre10.mp4,,,,,,,,,,,,1591.7575,1593.3088,-0.448002296,-0.295765744,1,0,0,1.5499,Faux,0,27,27,27,1,,
,,,,,P007,001,2025-01-11_14h13.47.511,Emotion.Memoire.2024,2024.1.5,Win32,60.24096386,,,,,,,,,,,,,,IMAGES_EXP_mp4_40/FIXES/FIX-NEGATIF-mp4/Image1.mp4,IMAGES_EXP_mp4_40/FIXES/FIX-NEGATIF-mp4/Image3.mp4,,,,,,,,,,,,1593.3094,1594.5382,0.440294386,-0.328151558,1,0,0,1.2278,Vrai,0,28,28,28,1,,
,,,,,P007,001,2025-01-11_14h13.47.511,Emotion.Memoire.2024,2024.1.5,Win32,60.24096386,,,,,,,,,,,,,,IMAGES_EXP_mp4_40/ANIMEES/10- ANIMEES --NEGATIVES /Video10.mp4,DISTRACTEURS-40/DIST.FIXES-20/10.NÉGATIFS/Dist.fix.negatif6.mp4,,,,,,,,,,,,1594.5388,1595.6532,-0.441525133,-0.318898454,1,0,0,1.1138,Faux,0,29,29,29,1,,
,,,,,P007,001,2025-01-11_14h13.47.511,Emotion.Memoire.2024,2024.1.5,Win32,60.24096386,,,,,,,,,,,,,,IMAGES_EXP_mp4_40/ANIMEES/11-ANIMEES --- NEUTRES /video8.mp4,IMAGES_EXP_mp4_40/ANIMEES/11-ANIMEES --- NEUTRES /video1.mp4,,,,,,,,,,,,1595.6538,1596.669,0.451397956,-0.31334667,1,0,0,1.0144,Vrai,0,30,30,30,1,,
,,,,,P007,001,2025-01-11_14h13.47.511,Emotion.Memoire.2024,2024.1.5,Win32,60.24096386,,,,,,,,,,,,,,IMAGES_EXP_mp4_40/FIXES/FIX-NEUTRE-mp4/image6.mp4,IMAGES_EXP_mp4_40/FIXES/FIX-NEUTRE-mp4/image9.mp4,,,,,,,,,,,,1596.6695,1597.7011,0.505991296,-0.318898454,1,0,0,1.0305,Vrai,0,31,31,31,1,,
,,,,,P007,001,2025-01-11_14h13.47.511,Emotion.Memoire.2024,2024.1.5,Win32,60.24096386,,,,,,,,,,,,,,IMAGES_EXP_mp4_40/ANIMEES/10- ANIMEES --NEGATIVES /Video2.mp4,IMAGES_EXP_mp4_40/ANIMEES/10- ANIMEES --NEGATIVES /Video6.mp4,,,,,,,,,,,,1597.7018,1598.7842,0.468053407,-0.299466869,1,0,0,1.0816,Vrai,0,32,32,32,1,,
,,,,,P007,001,2025-01-11_14h13.47.511,Emotion.Memoire.2024,2024.1.5,Win32,60.24096386,,,,,,,,,,,,,,IMAGES_EXP_mp4_40/ANIMEES/10- ANIMEES --NEGATIVES /Video3.mp4,IMAGES_EXP_mp4_40/ANIMEES/11-ANIMEES --- NEUTRES /video3.mp4,,,,,,,,,,,,1598.785,1599.816,0.447696831,-0.277259585,1,0,0,1.03,Vrai,0,33,33,33,1,,
,,,,,P007,001,2025-01-11_14h13.47.511,Emotion.Memoire.2024,2024.1.5,Win32,60.24096386,,,,,,,,,,,,,,IMAGES_EXP_mp4_40/FIXES/FIX-NEUTRE-mp4/image2.mp4,DISTRACTEURS-40/DIST.ANIMÉES-20/10.NÉGATIFS/Dist.animee.negatif7.mp4,,,,,,,,,,,,1599.8166,1601.2991,-0.472060288,-0.280035381,1,0,0,1.4805,Faux,0,34,34,34,1,,
,,,,,P007,001,2025-01-11_14h13.47.511,Emotion.Memoire.2024,2024.1.5,Win32,60.24096386,,,,,,,,,,,,,,IMAGES_EXP_mp4_40/FIXES/FIX-NEUTRE-mp4/image3.mp4,IMAGES_EXP_mp4_40/ANIMEES/11-ANIMEES --- NEUTRES /video9.mp4,,,,,,,,,,,,1601.2997,1602.4461,0.468978978,-0.275408974,1,0,0,1.1448,Vrai,0,35,35,35,1,,
,,,,,P007,001,2025-01-11_14h13.47.511,Emotion.Memoire.2024,2024.1.5,Win32,60.24096386,,,,,,,,,,,,,,IMAGES_EXP_mp4_40/FIXES/FIX-NEGATIF-mp4/Image9.mp4,DISTRACTEURS-40/DIST.ANIMÉES-20/10.NEUTRES/Dist.animee.neutre6.mp4,,,,,,,,,,,,1602.4466,1604.0453,-0.532205389,-0.278184818,1,0,0,1.5976,Faux,0,36,36,36,1,,
,,,,,P007,001,2025-01-11_14h13.47.511,Emotion.Memoire.2024,2024.1.5,Win32,60.24096386,,,,,,,,,,,,,,IMAGES_EXP_mp4_40/FIXES/FIX-NEGATIF-mp4/Image7.mp4,IMAGES_EXP_mp4_40/FIXES/FIX-NEGATIF-mp4/Image8.mp4,,,,,,,,,,,,1604.0457,1605.0107,0.410684513,-0.277259585,1,0,0,0.9642,Vrai,0,37,37,37,1,,
,,,,,P007,001,2025-01-11_14h13.47.511,Emotion.Memoire.2024,2024.1.5,Win32,60.24096386,,,,,,,,,,,,,,IMAGES_EXP_mp4_40/ANIMEES/10- ANIMEES --NEGATIVES /Video6.mp4,IMAGES_EXP_mp4_40/FIXES/FIX-NEUTRE-mp4/image8.mp4,,,,,,,,,,,,1605.0113,1606.0433,0.498588852,-0.280960807,1,0,0,1.0307,Vrai,0,38,38,38,1,,
,,,,,P007,001,2025-01-11_14h13.47.511,Emotion.Memoire.2024,2024.1.5,Win32,60.24096386,,,,,,,,,,,,,,IMAGES_EXP_mp4_40/FIXES/FIX-NEUTRE-mp4/image1.mp4,IMAGES_EXP_mp4_40/ANIMEES/11-ANIMEES --- NEUTRES /video7.mp4,,,,,,,,,,,,1606.0437,1608.0247,0.498588852,-0.280960807,1,0,0,1.9802,Vrai,0,39,39,39,1,,
,,,,,P007,001,2025-01-11_14h13.47.511,Emotion.Memoire.2024,2024.1.5,Win32,60.24096386,,,,,,,,,,,,,,IMAGES_EXP_mp4_40/ANIMEES/10- ANIMEES --NEGATIVES /Video1.mp4,DISTRACTEURS-40/DIST.ANIMÉES-20/10.NÉGATIFS/Dist.animee.negatif1.mp4,,,,,,,,,,,,1608.0259,1609.8559,-0.462807233,-0.302242907,1,0,0,1.8284,Faux,0,40,40,40,1,,
,,,,,P007,001,2025-01-11_14h13.47.511,Emotion.Memoire.2024,2024.1.5,Win32,60.24096386,,,,,,,,,,,,,,,DISTRACTEURS-40/DIST.FIXES-20/10.NEUTRES /Dist.fix.neutre9.mp4,,,,,,,,,,,,1609.8566,1611.0445,-0.457255351,-0.301317625,1,0,0,1.1868,Faux,0,41,41,41,1,,
,,,,,P007,001,2025-01-11_14h13.47.511,Emotion.Memoire.2024,2024.1.5,Win32,60.24096386,,,,,,,,,,,,,,,DISTRACTEURS-40/DIST.FIXES-20/10.NÉGATIFS/Dist.fix.negatif7.mp4,,,,,,,,,,,,1611.0449,1612.1057,-0.457255351,-0.301317625,1,0,0,1.0597,Faux,0,42,42,42,1,,
,,,,,P007,001,2025-01-11_14h13.47.511,Emotion.Memoire.2024,2024.1.5,Win32,60.24096386,,,,,,,,,,,,,,,DISTRACTEURS-40/DIST.ANIMÉES-20/10.NEUTRES/Dist.animee.neutre9.mp4,,,,,,,,,,,,1612.1065,1613.4861,-0.457255351,-0.301317625,1,0,0,1.3782,Faux,0,43,43,43,1,,
,,,,,P007,001,2025-01-11_14h13.47.511,Emotion.Memoire.2024,2024.1.5,Win32,60.24096386,,,,,,,,,,,,,,,DISTRACTEURS-40/DIST.FIXES-20/10.NÉGATIFS/Dist.fix.negatif1.mp4,,,,,,,,,,,,1613.4866,1614.5684,-0.457255351,-0.301317625,1,0,0,1.0809,Faux,0,44,44,44,1,,
,,,,,P007,001,2025-01-11_14h13.47.511,Emotion.Memoire.2024,2024.1.5,Win32,60.24096386,,,,,,,,,,,,,,,DISTRACTEURS-40/DIST.ANIMÉES-20/10.NÉGATIFS/Dist.animee.negatif6.mp4,,,,,,,,,,,,1614.569,1615.6032,-0.457255351,-0.301317625,1,0,0,1.0332,Faux,0,45,45,45,1,,
,,,,,P007,001,2025-01-11_14h13.47.511,Emotion.Memoire.2024,2024.1.5,Win32,60.24096386,,,,,,,,,,,,,,,DISTRACTEURS-40/DIST.ANIMÉES-20/10.NÉGATIFS/Dist.animee.negatif2.mp4,,,,,,,,,,,,1615.6037,1616.4483,-0.457255351,-0.301317625,1,0,0,0.8437,Faux,0,46,46,46,1,,
,,,,,P007,001,2025-01-11_14h13.47.511,Emotion.Memoire.2024,2024.1.5,Win32,60.24096386,,,,,,,,,,,,,,,IMAGES_EXP_mp4_40/FIXES/FIX-NEGATIF-mp4/Image4.mp4,,,,,,,,,,,,1616.4492,1617.7826,0.436593164,-0.298541685,1,0,0,1.3319,Vrai,0,47,47,47,1,,
,,,,,P007,001,2025-01-11_14h13.47.511,Emotion.Memoire.2024,2024.1.5,Win32,60.24096386,,,,,,,,,,,,,,,IMAGES_EXP_mp4_40/ANIMEES/10- ANIMEES --NEGATIVES /Video7.mp4,,,,,,,,,,,,1617.7832,1618.4987,0.436593164,-0.298541685,1,0,0,0.714,Vrai,0,48,48,48,1,,
,,,,,P007,001,2025-01-11_14h13.47.511,Emotion.Memoire.2024,2024.1.5,Win32,60.24096386,,,,,,,,,,,,,,,IMAGES_EXP_mp4_40/FIXES/FIX-NEUTRE-mp4/image4.mp4,,,,,,,,,,,,1618.4991,1619.3145,0.436593164,-0.298541685,1,0,0,0.8143,Vrai,0,49,49,49,1,,
,,,,,P007,001,2025-01-11_14h13.47.511,Emotion.Memoire.2024,2024.1.5,Win32,60.24096386,,,,,,,,,,,,,,,DISTRACTEURS-40/DIST.FIXES-20/10.NÉGATIFS/Dist.fix.negatif5.mp4,,,,,,,,,,,,1619.3149,1620.6507,-0.424869537,-0.305944032,1,0,0,1.335,Faux,0,50,50,50,1,,
,,,,,P007,001,2025-01-11_14h13.47.511,Emotion.Memoire.2024,2024.1.5,Win32,60.24096386,,,,,,,,,,,,,,,DISTRACTEURS-40/DIST.ANIMÉES-20/10.NÉGATIFS/Dist.animee.negatif9.mp4,,,,,,,,,,,,1620.6512,1622.4945,-0.424869537,-0.305944032,1,0,0,1.8424,Faux,0,51,51,51,1,,
,,,,,P007,001,2025-01-11_14h13.47.511,Emotion.Memoire.2024,2024.1.5,Win32,60.24096386,,,,,,,,,,,,,,,IMAGES_EXP_mp4_40/ANIMEES/11-ANIMEES --- NEUTRES /video2.mp4,,,,,,,,,,,,1622.495,1623.8443,0.452323431,-0.284661981,1,0,0,1.3485,Vrai,0,52,52,52,1,,
,,,,,P007,001,2025-01-11_14h13.47.511,Emotion.Memoire.2024,2024.1.5,Win32,60.24096386,,,,,,,,,,,,,,,DISTRACTEURS-40/DIST.ANIMÉES-20/10.NEUTRES/Dist.animee.neutre5.mp4,,,,,,,,,,,,1623.8448,1625.0767,-0.448002296,-0.299466869,1,0,0,1.2309,Faux,0,53,53,53,1,,
,,,,,P007,001,2025-01-11_14h13.47.511,Emotion.Memoire.2024,2024.1.5,Win32,60.24096386,,,,,,,,,,,,,,,IMAGES_EXP_mp4_40/FIXES/FIX-NEGATIF-mp4/Image7.mp4,,,,,,,,,,,,1625.0773,1626.2177,0.514319118,-0.293915133,1,0,0,1.1396,Vrai,0,54,54,54,1,,
,,,,,P007,001,2025-01-11_14h13.47.511,Emotion.Memoire.2024,2024.1.5,Win32,60.24096386,,,,,,,,,,,,,,,IMAGES_EXP_mp4_40/FIXES/FIX-NEGATIF-mp4/Image6.mp4,,,,,,,,,,,,1626.2183,1627.2897,0.471754919,-0.284661981,1,0,0,1.0706,Vrai,0,55,55,55,1,,
,,,,,P007,001,2025-01-11_14h13.47.511,Emotion.Memoire.2024,2024.1.5,Win32,60.24096386,,,,,,,,,,,,,,,IMAGES_EXP_mp4_40/FIXES/FIX-NEGATIF-mp4/Image5.mp4,,,,,,,,,,,,1627.2902,1628.1391,0.477306607,-0.284661981,1,0,0,0.848,Vrai,0,56,56,56,1,,
,,,,,P007,001,2025-01-11_14h13.47.511,Emotion.Memoire.2024,2024.1.5,Win32,60.24096386,,,,,,,,,,,,,,,IMAGES_EXP_mp4_40/ANIMEES/11-ANIMEES --- NEUTRES /video10.mp4,,,,,,,,,,,,1628.1395,1628.9888,0.511543177,-0.284661981,1,0,0,0.8484,Vrai,0,57,57,57,1,,
,,,,,P007,001,2025-01-11_14h13.47.511,Emotion.Memoire.2024,2024.1.5,Win32,60.24096386,,,,,,,,,,,,,,,DISTRACTEURS-40/DIST.FIXES-20/10.NEUTRES /Dist.fix.neutre4.mp4,,,,,,,,,,,,1628.9892,1630.2038,-0.416541763,-0.290213911,1,0,0,1.2139,Faux,0,58,58,58,1,,
,,,,,P007,001,2025-01-11_14h13.47.511,Emotion.Memoire.2024,2024.1.5,Win32,60.24096386,,,,,,,,,,,,,,,IMAGES_EXP_mp4_40/ANIMEES/11-ANIMEES --- NEUTRES /video4.mp4,,,,,,,,,,,,1630.2044,1631.2196,0.448621919,-0.283736748,1,0,0,1.0137,Vrai,0,59,59,59,1,,
,,,,,P007,001,2025-01-11_14h13.47.511,Emotion.Memoire.2024,2024.1.5,Win32,60.24096386,,,,,,,,,,,,,,,DISTRACTEURS-40/DIST.FIXES-20/10.NEUTRES /Dist.fix.neutre6.mp4,,,,,,,,,,,,1631.2199,1632.8052,-0.418392375,-0.280035381,1,0,0,1.5844,Faux,0,60,60,60,1,,
,,,,,P007,001,2025-01-11_14h13.47.511,Emotion.Memoire.2024,2024.1.5,Win32,60.24096386,,,,,,,,,,,,,,,DISTRACTEURS-40/DIST.FIXES-20/10.NEUTRES /Dist.fix.neutre3.mp4,,,,,,,,,,,,1632.8061,1634.0742,-0.448002296,-0.272633033,1,0,0,1.2667,Faux,0,61,61,61,1,,
,,,,,P007,001,2025-01-11_14h13.47.511,Emotion.Memoire.2024,2024.1.5,Win32,60.24096386,,,,,,,,,,,,,,,DISTRACTEURS-40/DIST.FIXES-20/10.NÉGATIFS/Dist.fix.negatif10.mp4,,,,,,,,,,,,1634.0751,1634.9657,-0.448002296,-0.272633033,1,0,0,0.8884,Faux,0,62,62,62,1,,
,,,,,P007,001,2025-01-11_14h13.47.511,Emotion.Memoire.2024,2024.1.5,Win32,60.24096386,,,,,,,,,,,,,,,IMAGES_EXP_mp4_40/ANIMEES/10- ANIMEES --NEGATIVES /Video1.mp4,,,,,,,,,,,,1634.9663,1636.0207,0.495812911,-0.270782422,1,0,0,1.0531,Vrai,0,63,63,63,1,,
,,,,,P007,001,2025-01-11_14h13.47.511,Emotion.Memoire.2024,2024.1.5,Win32,60.24096386,,,,,,,,,,,,,,,DISTRACTEURS-40/DIST.FIXES-20/10.NÉGATIFS/Dist.fix.negatif9.mp4,,,,,,,,,,,,1636.0214,1637.0643,-0.443375744,-0.254126778,1,0,0,1.0399,Faux,0,64,64,64,1,,
,,,,,P007,001,2025-01-11_14h13.47.511,Emotion.Memoire.2024,2024.1.5,Win32,60.24096386,,,,,,,,,,,,,,,DISTRACTEURS-40/DIST.FIXES-20/10.NÉGATIFS/Dist.fix.negatif2.mp4,,,,,,,,,,,,1637.065,1638.2882,-0.448002296,-0.278184818,1,0,0,1.2219,Faux,0,65,65,65,1,,
,,,,,P007,001,2025-01-11_14h13.47.511,Emotion.Memoire.2024,2024.1.5,Win32,60.24096386,,,,,,,,,,,,,,,IMAGES_EXP_mp4_40/FIXES/FIX-NEUTRE-mp4/image10.mp4,,,,,,,,,,,,1638.2887,1639.3451,0.436593164,-0.282811418,1,0,0,1.0553,Vrai,0,66,66,66,1,,
,,,,,P007,001,2025-01-11_14h13.47.511,Emotion.Memoire.2024,2024.1.5,Win32,60.24096386,,,,,,,,,,,,,,,IMAGES_EXP_mp4_40/FIXES/FIX-NEGATIF-mp4/Image1.mp4,,,,,,,,,,,,1639.3458,1640.2275,0.407908572,-0.268006482,1,0,0,0.8806,Vrai,0,67,67,67,1,,
,,,,,P007,001,2025-01-11_14h13.47.511,Emotion.Memoire.2024,2024.1.5,Win32,60.24096386,,,,,,,,,,,,,,,IMAGES_EXP_mp4_40/ANIMEES/10- ANIMEES --NEGATIVES /Video3.mp4,,,,,,,,,,,,1640.228,1641.4167,0.470829445,-0.268006482,1,0,0,1.1875,Vrai,0,68,68,68,1,,
,,,,,P007,001,2025-01-11_14h13.47.511,Emotion.Memoire.2024,2024.1.5,Win32,60.24096386,,,,,,,,,,,,,,,DISTRACTEURS-40/DIST.FIXES-20/10.NEUTRES /Dist.fix.neutre1.mp4,,,,,,,,,,,,1641.4171,1642.326,-0.425794867,-0.247649615,1,0,0,0.9067,Faux,0,69,69,69,1,,
,,,,,P007,001,2025-01-11_14h13.47.511,Emotion.Memoire.2024,2024.1.5,Win32,60.24096386,,,,,,,,,,,,,,,DISTRACTEURS-40/DIST.FIXES-20/10.NÉGATIFS/Dist.fix.negatif3.mp4,,,,,,,,,,,,1642.327,1643.9963,-0.413765823,-0.247649615,1,0,0,1.6676,Faux,0,70,70,70,1,,
,,,,,P007,001,2025-01-11_14h13.47.511,Emotion.Memoire.2024,2024.1.5,Win32,60.24096386,,,,,,,,,,,,,,,IMAGES_EXP_mp4_40/FIXES/FIX-NEUTRE-mp4/image3.mp4,,,,,,,,,,,,1643.997,1645.0565,0.461576244,-0.265230493,1,0,0,1.058,Vrai,0,71,71,71,1,,
,,,,,P007,001,2025-01-11_14h13.47.511,Emotion.Memoire.2024,2024.1.5,Win32,60.24096386,,,,,,,,,,,,,,,IMAGES_EXP_mp4_40/FIXES/FIX-NEGATIF-mp4/Image10.mp4,,,,,,,,,,,,1645.0572,1645.7891,0.461576244,-0.266155871,1,0,0,0.7302,Vrai,0,72,72,72,1,,
,,,,,P007,001,2025-01-11_14h13.47.511,Emotion.Memoire.2024,2024.1.5,Win32,60.24096386,,,,,,,,,,,,,,,IMAGES_EXP_mp4_40/FIXES/FIX-NEUTRE-mp4/image1.mp4,,,,,,,,,,,,1645.7895,1646.6558,0.544854273,-0.266155871,1,0,0,0.865,Vrai,0,73,73,73,1,,
,,,,,P007,001,2025-01-11_14h13.47.511,Emotion.Memoire.2024,2024.1.5,Win32,60.24096386,,,,,,,,,,,,,,,DISTRACTEURS-40/DIST.ANIMÉES-20/10.NEUTRES/Dist.animee.neutre8.mp4,,,,,,,,,,,,1646.6564,1647.6374,-0.411915212,-0.250425604,1,0,0,0.9795,Faux,0,74,74,74,1,,
,,,,,P007,001,2025-01-11_14h13.47.511,Emotion.Memoire.2024,2024.1.5,Win32,60.24096386,,,,,,,,,,,,,,,DISTRACTEURS-40/DIST.FIXES-20/10.NÉGATIFS/Dist.fix.negatif4.mp4,,,,,,,,,,,,1647.6379,1648.6765,-0.435047971,-0.253201545,1,0,0,1.0375,Faux,0,75,75,75,1,,
,,,,,P007,001,2025-01-11_14h13.47.511,Emotion.Memoire.2024,2024.1.5,Win32,60.24096386,,,,,,,,,,,,,,,DISTRACTEURS-40/DIST.ANIMÉES-20/10.NÉGATIFS/Dist.animee.negatif3.mp4,,,,,,,,,,,,1648.677,1650.9553,-0.435047971,-0.253201545,1,0,0,2.2771,Faux,0,76,76,76,1,,
,,,,,P007,001,2025-01-11_14h13.47.511,Emotion.Memoire.2024,2024.1.5,Win32,60.24096386,,,,,,,,,,,,,,,DISTRACTEURS-40/DIST.ANIMÉES-20/10.NEUTRES/Dist.animee.neutre2.mp4,,,,,,,,,,,,1650.9559,1651.7341,-0.435047971,-0.253201545,1,0,0,0.7767,Faux,0,77,77,77,1,,
,,,,,P007,001,2025-01-11_14h13.47.511,Emotion.Memoire.2024,2024.1.5,Win32,60.24096386,,,,,,,,,,,,,,,IMAGES_EXP_mp4_40/ANIMEES/10- ANIMEES --NEGATIVES /Video9.mp4,,,,,,,,,,,,1651.735,1653.0658,0.471754919,-0.257828097,1,0,0,1.3298,Vrai,0,78,78,78,1,,
,,,,,P007,001,2025-01-11_14h13.47.511,Emotion.Memoire.2024,2024.1.5,Win32,60.24096386,,,,,,,,,,,,,,,DISTRACTEURS-40/DIST.ANIMÉES-20/10.NEUTRES/Dist.animee.neutre7.mp4,,,,,,,,,,,,1653.0666,1654.1582,-0.43227203,-0.26337993,1,0,0,1.09,Faux,0,79,79,79,1,,
,,,,,P007,001,2025-01-11_14h13.47.511,Emotion.Memoire.2024,2024.1.5,Win32,60.24096386,,,,,,,,,,,,,,,,,,,,,,,,,,,,,,,,,,,,,,,,,1654.1588,1669.1514
