Consigne.started,Consigne.stopped,Key_resp1.keys,Key_resp1.rt,Key_resp1.duration,participant,session,date,expName,psychopyVersion,OS,frameRate,IMAGES.started,IMAGES.stopped,SAM.started,SAM.stopped,Plaisir.response,Plaisir.rt,EVEIL.response,EVEIL.rt,trials.thisRepN,trials.thisTrialN,trials.thisN,trials.thisIndex,trials.ran,ImageFile,ImagesDistracteursFile,Test,Calcul.started,Calcul.stopped,Key_response.keys,Key_response.rt,Key_response.duration,Consigne_reco.started,Consigne_reco.stopped,key_resp_reconn.keys,key_resp_reconn.rt,key_resp_reconn.duration,DISTRACTEURS.started,DISTRACTEURS.stopped,mouse.x,mouse.y,mouse.leftButton,mouse.midButton,mouse.rightButton,mouse.time,mouse.clicked_name,trials_2.thisRepN,trials_2.thisTrialN,trials_2.thisN,trials_2.thisIndex,trials_2.ran,MERCI.started,MERCI.stopped
0.0004,19.175,space,18.9173,,P008,001,2025-01-16_14h08.43.643,Emotion.Memoire.2024,2024.1.5,Win32,59.17159763,,,,,,,,,,,,,,,,,,,,,,,,,,,,,,,,,,,,,,,,,,
,,,,,P008,001,2025-01-16_14h08.43.643,Emotion.Memoire.2024,2024.1.5,Win32,59.17159763,19.1914,29.1856,29.1863,46.416,5,10.0963,6,17.2215,0,0,0,0,1,IMAGES_EXP_mp4_40/FIXES/FIX-NEGATIF-mp4/Image6.mp4,DISTRACTEURS-40/DIST.ANIMÉES-20/10.NÉGATIFS/Dist.animee.negatif10.mp4,IMAGES_EXP_mp4_40/ANIMEES/10- ANIMEES --NEGATIVES /Video1.mp4,,,,,,,,,,,,,,,,,,,,,,,,,,
,,,,,P008,001,2025-01-16_14h08.43.643,Emotion.Memoire.2024,2024.1.5,Win32,59.17159763,46.4166,56.4067,56.4072,68.4493,7,9.5688,2,12.0407,0,1,1,1,1,IMAGES_EXP_mp4_40/FIXES/FIX-NEUTRE-mp4/image9.mp4,DISTRACTEURS-40/DIST.ANIMÉES-20/10.NEUTRES/Dist.animee.neutre3.mp4,DISTRACTEURS-40/DIST.FIXES-20/10.NÉGATIFS/Dist.fix.negatif3.mp4,,,,,,,,,,,,,,,,,,,,,,,,,,
,,,,,P008,001,2025-01-16_14h08.43.643,Emotion.Memoire.2024,2024.1.5,Win32,59.17159763,68.4495,78.4474,78.4478,84.0616,2,2.5175,6,5.6105,0,2,2,2,1,IMAGES_EXP_mp4_40/FIXES/FIX-NEGATIF-mp4/Image3.mp4,IMAGES_EXP_mp4_40/ANIMEES/10- ANIMEES --NEGATIVES /Video2.mp4,DISTRACTEURS-40/DIST.FIXES-20/10.NÉGATIFS/Dist.fix.negatif5.mp4,,,,,,,,,,,,,,,,,,,,,,,,,,
,,,,,P008,001,2025-01-16_14h08.43.643,Emotion.Memoire.2024,2024.1.5,Win32,59.17159763,84.0621,94.0587,94.0589,97.9306,3,1.8682,6,3.8706,0,3,3,3,1,IMAGES_EXP_mp4_40/FIXES/FIX-NEGATIF-mp4/Image4.mp4,IMAGES_EXP_mp4_40/FIXES/FIX-NEUTRE-mp4/image6.mp4,,,,,,,,,,,,,,,,,,,,,,,,,,,
,,,,,P008,001,2025-01-16_14h08.43.643,Emotion.Memoire.2024,2024.1.5,Win32,59.17159763,97.9309,107.9201,107.9203,111.3246,1,0.9165,8,3.4033,0,4,4,4,1,IMAGES_EXP_mp4_40/FIXES/FIX-NEGATIF-mp4/Image10.mp4,IMAGES_EXP_mp4_40/FIXES/FIX-NEUTRE-mp4/image2.mp4,,,,,,,,,,,,,,,,,,,,,,,,,,,
,,,,,P008,001,2025-01-16_14h08.43.643,Emotion.Memoire.2024,2024.1.5,Win32,59.17159763,111.3249,121.2809,121.281,128.0377,7,4.2858,2,6.7558,0,5,5,5,1,IMAGES_EXP_mp4_40/ANIMEES/11-ANIMEES --- NEUTRES /video10.mp4,DISTRACTEURS-40/DIST.FIXES-20/10.NEUTRES /Dist.fix.neutre7.mp4,,,,,,,,,,,,,,,,,,,,,,,,,,,
,,,,,P008,001,2025-01-16_14h08.43.643,Emotion.Memoire.2024,2024.1.5,Win32,59.17159763,128.0379,138.0373,138.0376,143.892,4,3.5425,5,5.8457,0,6,6,6,1,IMAGES_EXP_mp4_40/ANIMEES/10- ANIMEES --NEGATIVES /Video4.mp4,DISTRACTEURS-40/DIST.ANIMÉES-20/10.NÉGATIFS/Dist.animee.negatif4.mp4,,,,,,,,,,,,,,,,,,,,,,,,,,,
,,,,,P008,001,2025-01-16_14h08.43.643,Emotion.Memoire.2024,2024.1.5,Win32,59.17159763,143.8923,153.8832,153.8836,165.4256,7,5.7443,3,11.5325,0,7,7,7,1,IMAGES_EXP_mp4_40/FIXES/FIX-NEUTRE-mp4/image10.mp4,IMAGES_EXP_mp4_40/FIXES/FIX-NEGATIF-mp4/Image2.mp4,,,,,,,,,,,,,,,,,,,,,,,,,,,
,,,,,P008,001,2025-01-16_14h08.43.643,Emotion.Memoire.2024,2024.1.5,Win32,59.17159763,165.4259,175.4321,175.4326,181.6781,4,4.0386,5,6.2445,0,8,8,8,1,IMAGES_EXP_mp4_40/ANIMEES/10- ANIMEES --NEGATIVES /Video1.mp4,IMAGES_EXP_mp4_40/FIXES/FIX-NEGATIF-mp4/Image9.mp4,,,,,,,,,,,,,,,,,,,,,,,,,,,
,,,,,P008,001,2025-01-16_14h08.43.643,Emotion.Memoire.2024,2024.1.5,Win32,59.17159763,181.6783,191.6684,191.6688,199.769,5,7.2709,5,8.0994,0,9,9,9,1,IMAGES_EXP_mp4_40/FIXES/FIX-NEUTRE-mp4/image4.mp4,DISTRACTEURS-40/DIST.FIXES-20/10.NEUTRES /Dist.fix.neutre8.mp4,,,,,,,,,,,,,,,,,,,,,,,,,,,
,,,,,P008,001,2025-01-16_14h08.43.643,Emotion.Memoire.2024,2024.1.5,Win32,59.17159763,199.7692,209.7673,209.7676,215.7223,7,3.4344,3,5.954,0,10,10,10,1,IMAGES_EXP_mp4_40/ANIMEES/11-ANIMEES --- NEUTRES /video6.mp4,DISTRACTEURS-40/DIST.ANIMÉES-20/10.NÉGATIFS/Dist.animee.negatif8.mp4,,,,,,,,,,,,,,,,,,,,,,,,,,,
,,,,,P008,001,2025-01-16_14h08.43.643,Emotion.Memoire.2024,2024.1.5,Win32,59.17159763,215.7225,225.7214,225.7227,233.7358,6,5.0584,5,8.0119,0,11,11,11,1,IMAGES_EXP_mp4_40/ANIMEES/11-ANIMEES --- NEUTRES /video9.mp4,IMAGES_EXP_mp4_40/ANIMEES/11-ANIMEES --- NEUTRES /video8.mp4,,,,,,,,,,,,,,,,,,,,,,,,,,,
,,,,,P008,001,2025-01-16_14h08.43.643,Emotion.Memoire.2024,2024.1.5,Win32,59.17159763,233.7359,243.7262,243.7265,250.5491,6,4.1732,4,6.8217,0,12,12,12,1,IMAGES_EXP_mp4_40/FIXES/FIX-NEUTRE-mp4/image8.mp4,IMAGES_EXP_mp4_40/ANIMEES/10- ANIMEES --NEGATIVES /Video8.mp4,,,,,,,,,,,,,,,,,,,,,,,,,,,
,,,,,P008,001,2025-01-16_14h08.43.643,Emotion.Memoire.2024,2024.1.5,Win32,59.17159763,250.5492,260.5384,260.5388,268.6306,4,2.9529,6,8.0911,0,13,13,13,1,IMAGES_EXP_mp4_40/ANIMEES/11-ANIMEES --- NEUTRES /video5.mp4,DISTRACTEURS-40/DIST.FIXES-20/10.NÉGATIFS/Dist.fix.negatif8.mp4,,,,,,,,,,,,,,,,,,,,,,,,,,,
,,,,,P008,001,2025-01-16_14h08.43.643,Emotion.Memoire.2024,2024.1.5,Win32,59.17159763,268.6308,278.6305,278.6308,283.5843,7,3.4591,3,4.9449,0,14,14,14,1,IMAGES_EXP_mp4_40/ANIMEES/11-ANIMEES --- NEUTRES /video1.mp4,DISTRACTEURS-40/DIST.FIXES-20/10.NEUTRES /Dist.fix.neutre2.mp4,,,,,,,,,,,,,,,,,,,,,,,,,,,
,,,,,P008,001,2025-01-16_14h08.43.643,Emotion.Memoire.2024,2024.1.5,Win32,59.17159763,283.5847,292.9136,292.9137,297.9957,2,2.2064,5,5.0784,0,15,15,15,1,IMAGES_EXP_mp4_40/ANIMEES/10- ANIMEES --NEGATIVES /Video9.mp4,DISTRACTEURS-40/DIST.ANIMÉES-20/10.NEUTRES/Dist.animee.neutre10.mp4,,,,,,,,,,,,,,,,,,,,,,,,,,,
,,,,,P008,001,2025-01-16_14h08.43.643,Emotion.Memoire.2024,2024.1.5,Win32,59.17159763,297.996,306.8357,306.8357,310.105,3,1.1804,8,3.2597,0,16,16,16,1,IMAGES_EXP_mp4_40/ANIMEES/10- ANIMEES --NEGATIVES /Video8.mp4,DISTRACTEURS-40/DIST.FIXES-20/10.NEUTRES /Dist.fix.neutre5.mp4,,,,,,,,,,,,,,,,,,,,,,,,,,,
,,,,,P008,001,2025-01-16_14h08.43.643,Emotion.Memoire.2024,2024.1.5,Win32,59.17159763,310.1054,320.1029,320.1035,326.4082,3,1.9704,6,6.3032,0,17,17,17,1,IMAGES_EXP_mp4_40/FIXES/FIX-NEGATIF-mp4/Image5.mp4,DISTRACTEURS-40/DIST.ANIMÉES-20/10.NEUTRES/Dist.animee.neutre1.mp4,,,,,,,,,,,,,,,,,,,,,,,,,,,
,,,,,P008,001,2025-01-16_14h08.43.643,Emotion.Memoire.2024,2024.1.5,Win32,59.17159763,326.4084,336.3986,336.3988,343.5726,7,6.0211,3,7.173,0,18,18,18,1,IMAGES_EXP_mp4_40/ANIMEES/11-ANIMEES --- NEUTRES /video2.mp4,IMAGES_EXP_mp4_40/FIXES/FIX-NEUTRE-mp4/image5.mp4,,,,,,,,,,,,,,,,,,,,,,,,,,,
,,,,,P008,001,2025-01-16_14h08.43.643,Emotion.Memoire.2024,2024.1.5,Win32,59.17159763,343.5729,353.5643,353.5647,357.9674,2,2.1822,7,4.4017,0,19,19,19,1,IMAGES_EXP_mp4_40/ANIMEES/10- ANIMEES --NEGATIVES /Video7.mp4,IMAGES_EXP_mp4_40/FIXES/FIX-NEUTRE-mp4/image7.mp4,,,,,,,,,,,,,,,,,,,,,,,,,,,
,,,,,P008,001,2025-01-16_14h08.43.643,Emotion.Memoire.2024,2024.1.5,Win32,59.17159763,357.9677,367.9596,367.9602,373.0953,7,1.7473,7,5.1339,0,20,20,20,1,IMAGES_EXP_mp4_40/FIXES/FIX-NEUTRE-mp4/image5.mp4,IMAGES_EXP_mp4_40/ANIMEES/10- ANIMEES --NEGATIVES /Video10.mp4,,,,,,,,,,,,,,,,,,,,,,,,,,,
,,,,,P008,001,2025-01-16_14h08.43.643,Emotion.Memoire.2024,2024.1.5,Win32,59.17159763,373.0956,383.0955,383.0959,390.2511,7,5.4003,2,7.152,0,21,21,21,1,IMAGES_EXP_mp4_40/ANIMEES/11-ANIMEES --- NEUTRES /video3.mp4,IMAGES_EXP_mp4_40/ANIMEES/10- ANIMEES --NEGATIVES /Video4.mp4,,,,,,,,,,,,,,,,,,,,,,,,,,,
,,,,,P008,001,2025-01-16_14h08.43.643,Emotion.Memoire.2024,2024.1.5,Win32,59.17159763,390.2515,400.242,400.2426,404.3287,3,1.2242,7,4.0772,0,22,22,22,1,IMAGES_EXP_mp4_40/ANIMEES/10- ANIMEES --NEGATIVES /Video5.mp4,IMAGES_EXP_mp4_40/ANIMEES/10- ANIMEES --NEGATIVES /Video5.mp4,,,,,,,,,,,,,,,,,,,,,,,,,,,
,,,,,P008,001,2025-01-16_14h08.43.643,Emotion.Memoire.2024,2024.1.5,Win32,59.17159763,404.3291,414.3198,414.3204,418.2398,6,2.3598,6,3.9108,0,23,23,23,1,IMAGES_EXP_mp4_40/ANIMEES/11-ANIMEES --- NEUTRES /video7.mp4,IMAGES_EXP_mp4_40/ANIMEES/11-ANIMEES --- NEUTRES /video6.mp4,,,,,,,,,,,,,,,,,,,,,,,,,,,
,,,,,P008,001,2025-01-16_14h08.43.643,Emotion.Memoire.2024,2024.1.5,Win32,59.17159763,418.2402,428.2307,428.231,440.457,6,10.633,6,12.2248,0,24,24,24,1,IMAGES_EXP_mp4_40/FIXES/FIX-NEGATIF-mp4/Image8.mp4,IMAGES_EXP_mp4_40/ANIMEES/11-ANIMEES --- NEUTRES /video5.mp4,,,,,,,,,,,,,,,,,,,,,,,,,,,
,,,,,P008,001,2025-01-16_14h08.43.643,Emotion.Memoire.2024,2024.1.5,Win32,59.17159763,440.4572,450.4479,450.4482,453.4168,3,1.558,8,2.9596,0,25,25,25,1,IMAGES_EXP_mp4_40/FIXES/FIX-NEGATIF-mp4/Image2.mp4,DISTRACTEURS-40/DIST.ANIMÉES-20/10.NÉGATIFS/Dist.animee.negatif5.mp4,,,,,,,,,,,,,,,,,,,,,,,,,,,
,,,,,P008,001,2025-01-16_14h08.43.643,Emotion.Memoire.2024,2024.1.5,Win32,59.17159763,453.417,463.4081,463.4085,471.7479,3,2.1916,7,8.3307,0,26,26,26,1,IMAGES_EXP_mp4_40/FIXES/FIX-NEUTRE-mp4/image7.mp4,DISTRACTEURS-40/DIST.ANIMÉES-20/10.NEUTRES/Dist.animee.neutre4.mp4,,,,,,,,,,,,,,,,,,,,,,,,,,,
,,,,,P008,001,2025-01-16_14h08.43.643,Emotion.Memoire.2024,2024.1.5,Win32,59.17159763,471.7481,481.7392,481.7395,486.3427,7,3.7757,7,4.5942,0,27,27,27,1,IMAGES_EXP_mp4_40/ANIMEES/11-ANIMEES --- NEUTRES /video4.mp4,DISTRACTEURS-40/DIST.FIXES-20/10.NEUTRES /Dist.fix.neutre10.mp4,,,,,,,,,,,,,,,,,,,,,,,,,,,
,,,,,P008,001,2025-01-16_14h08.43.643,Emotion.Memoire.2024,2024.1.5,Win32,59.17159763,486.3432,496.334,496.3343,502.5056,2,2.3777,6,6.1626,0,28,28,28,1,IMAGES_EXP_mp4_40/FIXES/FIX-NEGATIF-mp4/Image1.mp4,IMAGES_EXP_mp4_40/FIXES/FIX-NEGATIF-mp4/Image3.mp4,,,,,,,,,,,,,,,,,,,,,,,,,,,
,,,,,P008,001,2025-01-16_14h08.43.643,Emotion.Memoire.2024,2024.1.5,Win32,59.17159763,502.5059,512.4965,512.4968,516.8169,3,2.3272,7,4.3111,0,29,29,29,1,IMAGES_EXP_mp4_40/ANIMEES/10- ANIMEES --NEGATIVES /Video10.mp4,DISTRACTEURS-40/DIST.FIXES-20/10.NÉGATIFS/Dist.fix.negatif6.mp4,,,,,,,,,,,,,,,,,,,,,,,,,,,
,,,,,P008,001,2025-01-16_14h08.43.643,Emotion.Memoire.2024,2024.1.5,Win32,59.17159763,516.8172,526.8074,526.8075,528.9928,7,1.4578,7,2.1762,0,30,30,30,1,IMAGES_EXP_mp4_40/ANIMEES/11-ANIMEES --- NEUTRES /video8.mp4,IMAGES_EXP_mp4_40/ANIMEES/11-ANIMEES --- NEUTRES /video1.mp4,,,,,,,,,,,,,,,,,,,,,,,,,,,
,,,,,P008,001,2025-01-16_14h08.43.643,Emotion.Memoire.2024,2024.1.5,Win32,59.17159763,528.9932,538.9906,538.9908,545.4968,7,4.6359,3,6.5051,0,31,31,31,1,IMAGES_EXP_mp4_40/FIXES/FIX-NEUTRE-mp4/image6.mp4,IMAGES_EXP_mp4_40/FIXES/FIX-NEUTRE-mp4/image9.mp4,,,,,,,,,,,,,,,,,,,,,,,,,,,
,,,,,P008,001,2025-01-16_14h08.43.643,Emotion.Memoire.2024,2024.1.5,Win32,59.17159763,545.497,555.4886,555.4888,559.0413,3,1.8235,7,3.5513,0,32,32,32,1,IMAGES_EXP_mp4_40/ANIMEES/10- ANIMEES --NEGATIVES /Video2.mp4,IMAGES_EXP_mp4_40/ANIMEES/10- ANIMEES --NEGATIVES /Video6.mp4,,,,,,,,,,,,,,,,,,,,,,,,,,,
,,,,,P008,001,2025-01-16_14h08.43.643,Emotion.Memoire.2024,2024.1.5,Win32,59.17159763,559.0416,569.0397,569.0404,574.9789,3,4.576,3,5.9277,0,33,33,33,1,IMAGES_EXP_mp4_40/ANIMEES/10- ANIMEES --NEGATIVES /Video3.mp4,IMAGES_EXP_mp4_40/ANIMEES/11-ANIMEES --- NEUTRES /video3.mp4,,,,,,,,,,,,,,,,,,,,,,,,,,,
,,,,,P008,001,2025-01-16_14h08.43.643,Emotion.Memoire.2024,2024.1.5,Win32,59.17159763,574.9792,584.9698,584.9701,588.8897,7,1.2621,3,3.9178,0,34,34,34,1,IMAGES_EXP_mp4_40/FIXES/FIX-NEUTRE-mp4/image2.mp4,DISTRACTEURS-40/DIST.ANIMÉES-20/10.NÉGATIFS/Dist.animee.negatif7.mp4,,,,,,,,,,,,,,,,,,,,,,,,,,,
,,,,,P008,001,2025-01-16_14h08.43.643,Emotion.Memoire.2024,2024.1.5,Win32,59.17159763,588.8901,598.8807,598.8811,602.6673,7,2.4906,3,3.7757,0,35,35,35,1,IMAGES_EXP_mp4_40/FIXES/FIX-NEUTRE-mp4/image3.mp4,IMAGES_EXP_mp4_40/ANIMEES/11-ANIMEES --- NEUTRES /video9.mp4,,,,,,,,,,,,,,,,,,,,,,,,,,,
,,,,,P008,001,2025-01-16_14h08.43.643,Emotion.Memoire.2024,2024.1.5,Win32,59.17159763,602.6677,612.6804,612.6809,617.9291,2,3.1699,7,5.2391,0,36,36,36,1,IMAGES_EXP_mp4_40/FIXES/FIX-NEGATIF-mp4/Image9.mp4,DISTRACTEURS-40/DIST.ANIMÉES-20/10.NEUTRES/Dist.animee.neutre6.mp4,,,,,,,,,,,,,,,,,,,,,,,,,,,
,,,,,P008,001,2025-01-16_14h08.43.643,Emotion.Memoire.2024,2024.1.5,Win32,59.17159763,617.9296,627.907,627.9073,631.0393,3,1.3727,6,3.1246,0,37,37,37,1,IMAGES_EXP_mp4_40/FIXES/FIX-NEGATIF-mp4/Image7.mp4,IMAGES_EXP_mp4_40/FIXES/FIX-NEGATIF-mp4/Image8.mp4,,,,,,,,,,,,,,,,,,,,,,,,,,,
,,,,,P008,001,2025-01-16_14h08.43.643,Emotion.Memoire.2024,2024.1.5,Win32,59.17159763,631.0396,641.0304,641.0309,644.8501,3,2.6172,6,3.8088,0,38,38,38,1,IMAGES_EXP_mp4_40/ANIMEES/10- ANIMEES --NEGATIVES /Video6.mp4,IMAGES_EXP_mp4_40/FIXES/FIX-NEUTRE-mp4/image8.mp4,,,,,,,,,,,,,,,,,,,,,,,,,,,
,,,,,P008,001,2025-01-16_14h08.43.643,Emotion.Memoire.2024,2024.1.5,Win32,59.17159763,644.8506,654.8409,654.8411,660.0287,7,3.9508,3,5.1828,0,39,39,39,1,IMAGES_EXP_mp4_40/FIXES/FIX-NEUTRE-mp4/image1.mp4,IMAGES_EXP_mp4_40/ANIMEES/11-ANIMEES --- NEUTRES /video7.mp4,,,,,,,,,,,,,,,,,,,,,,,,,,,
,,,,,P008,001,2025-01-16_14h08.43.643,Emotion.Memoire.2024,2024.1.5,Win32,59.17159763,,,,,,,,,,,,,,,,,660.0292,1424.0233,space,763.8124,,,,,,,,,,,,,,,,,,,,,,
,,,,,P008,001,2025-01-16_14h08.43.643,Emotion.Memoire.2024,2024.1.5,Win32,59.17159763,,,,,,,,,,,,,,,,,,,,,,1424.0234,1446.2334,space,22.096,,,,,,,,,,,,,,,,,
,,,,,P008,001,2025-01-16_14h08.43.643,Emotion.Memoire.2024,2024.1.5,Win32,59.17159763,,,,,,,,,,,,,,IMAGES_EXP_mp4_40/FIXES/FIX-NEGATIF-mp4/Image6.mp4,DISTRACTEURS-40/DIST.ANIMÉES-20/10.NÉGATIFS/Dist.animee.negatif10.mp4,IMAGES_EXP_mp4_40/ANIMEES/10- ANIMEES --NEGATIVES /Video1.mp4,,,,,,,,,,,1446.2392,1449.5701,-0.501666667,-0.318333333,1,0,0,3.2984,Faux,0,0,0,0,1,,
,,,,,P008,001,2025-01-16_14h08.43.643,Emotion.Memoire.2024,2024.1.5,Win32,59.17159763,,,,,,,,,,,,,,IMAGES_EXP_mp4_40/FIXES/FIX-NEUTRE-mp4/image9.mp4,DISTRACTEURS-40/DIST.ANIMÉES-20/10.NEUTRES/Dist.animee.neutre3.mp4,DISTRACTEURS-40/DIST.FIXES-20/10.NÉGATIFS/Dist.fix.negatif3.mp4,,,,,,,,,,,1449.5706,1451.7868,-0.501666667,-0.318333333,1,0,0,2.1561,Faux,0,1,1,1,1,,
,,,,,P008,001,2025-01-16_14h08.43.643,Emotion.Memoire.2024,2024.1.5,Win32,59.17159763,,,,,,,,,,,,,,IMAGES_EXP_mp4_40/FIXES/FIX-NEGATIF-mp4/Image3.mp4,IMAGES_EXP_mp4_40/ANIMEES/10- ANIMEES --NEGATIVES /Video2.mp4,DISTRACTEURS-40/DIST.FIXES-20/10.NÉGATIFS/Dist.fix.negatif5.mp4,,,,,,,,,,,1451.7876,1453.1798,0.519166667,-0.2575,1,0,0,1.3912,Vrai,0,2,2,2,1,,
,,,,,P008,001,2025-01-16_14h08.43.643,Emotion.Memoire.2024,2024.1.5,Win32,59.17159763,,,,,,,,,,,,,,IMAGES_EXP_mp4_40/FIXES/FIX-NEGATIF-mp4/Image4.mp4,IMAGES_EXP_mp4_40/FIXES/FIX-NEUTRE-mp4/image6.mp4,,,,,,,,,,,,1453.1802,1454.1792,0.5075,-0.293333333,1,0,0,0.9985,Vrai,0,3,3,3,1,,
,,,,,P008,001,2025-01-16_14h08.43.643,Emotion.Memoire.2024,2024.1.5,Win32,59.17159763,,,,,,,,,,,,,,IMAGES_EXP_mp4_40/FIXES/FIX-NEGATIF-mp4/Image10.mp4,IMAGES_EXP_mp4_40/FIXES/FIX-NEUTRE-mp4/image2.mp4,,,,,,,,,,,,1454.1797,1455.1473,0.5075,-0.293333333,1,0,0,0.967,Vrai,0,4,4,4,1,,
,,,,,P008,001,2025-01-16_14h08.43.643,Emotion.Memoire.2024,2024.1.5,Win32,59.17159763,,,,,,,,,,,,,,IMAGES_EXP_mp4_40/ANIMEES/11-ANIMEES --- NEUTRES /video10.mp4,DISTRACTEURS-40/DIST.FIXES-20/10.NEUTRES /Dist.fix.neutre7.mp4,,,,,,,,,,,,1455.1478,1456.966,-0.478333333,-0.271666667,1,0,0,1.8174,Faux,0,5,5,5,1,,
,,,,,P008,001,2025-01-16_14h08.43.643,Emotion.Memoire.2024,2024.1.5,Win32,59.17159763,,,,,,,,,,,,,,IMAGES_EXP_mp4_40/ANIMEES/10- ANIMEES --NEGATIVES /Video4.mp4,DISTRACTEURS-40/DIST.ANIMÉES-20/10.NÉGATIFS/Dist.animee.negatif4.mp4,,,,,,,,,,,,1456.9668,1458.1979,-0.455833333,-0.288333333,1,0,0,1.2299,Faux,0,6,6,6,1,,
,,,,,P008,001,2025-01-16_14h08.43.643,Emotion.Memoire.2024,2024.1.5,Win32,59.17159763,,,,,,,,,,,,,,IMAGES_EXP_mp4_40/FIXES/FIX-NEUTRE-mp4/image10.mp4,IMAGES_EXP_mp4_40/FIXES/FIX-NEGATIF-mp4/Image2.mp4,,,,,,,,,,,,1458.1984,1459.2607,0.5125,-0.290833333,1,0,0,1.0616,Vrai,0,7,7,7,1,,
,,,,,P008,001,2025-01-16_14h08.43.643,Emotion.Memoire.2024,2024.1.5,Win32,59.17159763,,,,,,,,,,,,,,IMAGES_EXP_mp4_40/ANIMEES/10- ANIMEES --NEGATIVES /Video1.mp4,IMAGES_EXP_mp4_40/FIXES/FIX-NEGATIF-mp4/Image9.mp4,,,,,,,,,,,,1459.2623,1460.1742,0.5125,-0.290833333,1,0,0,0.9104,Vrai,0,8,8,8,1,,
,,,,,P008,001,2025-01-16_14h08.43.643,Emotion.Memoire.2024,2024.1.5,Win32,59.17159763,,,,,,,,,,,,,,IMAGES_EXP_mp4_40/FIXES/FIX-NEUTRE-mp4/image4.mp4,DISTRACTEURS-40/DIST.FIXES-20/10.NEUTRES /Dist.fix.neutre8.mp4,,,,,,,,,,,,1460.1752,1465.1905,-0.515,-0.2825,1,0,0,4.9753,Faux,0,9,9,9,1,,
,,,,,P008,001,2025-01-16_14h08.43.643,Emotion.Memoire.2024,2024.1.5,Win32,59.17159763,,,,,,,,,,,,,,IMAGES_EXP_mp4_40/ANIMEES/11-ANIMEES --- NEUTRES /video6.mp4,DISTRACTEURS-40/DIST.ANIMÉES-20/10.NÉGATIFS/Dist.animee.negatif8.mp4,,,,,,,,,,,,1465.1914,1469.4761,-0.476666667,-0.294166667,1,0,0,4.2466,Faux,0,10,10,10,1,,
,,,,,P008,001,2025-01-16_14h08.43.643,Emotion.Memoire.2024,2024.1.5,Win32,59.17159763,,,,,,,,,,,,,,IMAGES_EXP_mp4_40/ANIMEES/11-ANIMEES --- NEUTRES /video9.mp4,IMAGES_EXP_mp4_40/ANIMEES/11-ANIMEES --- NEUTRES /video8.mp4,,,,,,,,,,,,1469.4771,1471.2757,0.4825,-0.32,1,0,0,1.7978,Vrai,0,11,11,11,1,,
,,,,,P008,001,2025-01-16_14h08.43.643,Emotion.Memoire.2024,2024.1.5,Win32,59.17159763,,,,,,,,,,,,,,IMAGES_EXP_mp4_40/FIXES/FIX-NEUTRE-mp4/image8.mp4,IMAGES_EXP_mp4_40/ANIMEES/10- ANIMEES --NEGATIVES /Video8.mp4,,,,,,,,,,,,1471.2763,1472.693,0.484166667,-0.291666667,1,0,0,1.4155,Vrai,0,12,12,12,1,,
,,,,,P008,001,2025-01-16_14h08.43.643,Emotion.Memoire.2024,2024.1.5,Win32,59.17159763,,,,,,,,,,,,,,IMAGES_EXP_mp4_40/ANIMEES/11-ANIMEES --- NEUTRES /video5.mp4,DISTRACTEURS-40/DIST.FIXES-20/10.NÉGATIFS/Dist.fix.negatif8.mp4,,,,,,,,,,,,1472.6935,1475.2059,-0.49,-0.309166667,1,0,0,2.4721,Faux,0,13,13,13,1,,
,,,,,P008,001,2025-01-16_14h08.43.643,Emotion.Memoire.2024,2024.1.5,Win32,59.17159763,,,,,,,,,,,,,,IMAGES_EXP_mp4_40/ANIMEES/11-ANIMEES --- NEUTRES /video1.mp4,DISTRACTEURS-40/DIST.FIXES-20/10.NEUTRES /Dist.fix.neutre2.mp4,,,,,,,,,,,,1475.2064,1487.7492,-0.488333333,-0.276666667,1,0,0,12.4122,Faux,0,14,14,14,1,,
,,,,,P008,001,2025-01-16_14h08.43.643,Emotion.Memoire.2024,2024.1.5,Win32,59.17159763,,,,,,,,,,,,,,IMAGES_EXP_mp4_40/ANIMEES/10- ANIMEES --NEGATIVES /Video9.mp4,DISTRACTEURS-40/DIST.ANIMÉES-20/10.NEUTRES/Dist.animee.neutre10.mp4,,,,,,,,,,,,1487.7503,1490.2843,-0.491666667,-0.288333333,1,0,0,2.4913,Faux,0,15,15,15,1,,
,,,,,P008,001,2025-01-16_14h08.43.643,Emotion.Memoire.2024,2024.1.5,Win32,59.17159763,,,,,,,,,,,,,,IMAGES_EXP_mp4_40/ANIMEES/10- ANIMEES --NEGATIVES /Video8.mp4,DISTRACTEURS-40/DIST.FIXES-20/10.NEUTRES /Dist.fix.neutre5.mp4,,,,,,,,,,,,1490.2849,1492.1416,-0.485,-0.2925,1,0,0,1.8348,Faux,0,16,16,16,1,,
,,,,,P008,001,2025-01-16_14h08.43.643,Emotion.Memoire.2024,2024.1.5,Win32,59.17159763,,,,,,,,,,,,,,IMAGES_EXP_mp4_40/FIXES/FIX-NEGATIF-mp4/Image5.mp4,DISTRACTEURS-40/DIST.ANIMÉES-20/10.NEUTRES/Dist.animee.neutre1.mp4,,,,,,,,,,,,1492.1419,1494.5042,-0.483333333,-0.3,1,0,0,2.15,Faux,0,17,17,17,1,,
,,,,,P008,001,2025-01-16_14h08.43.643,Emotion.Memoire.2024,2024.1.5,Win32,59.17159763,,,,,,,,,,,,,,IMAGES_EXP_mp4_40/ANIMEES/11-ANIMEES --- NEUTRES /video2.mp4,IMAGES_EXP_mp4_40/FIXES/FIX-NEUTRE-mp4/image5.mp4,,,,,,,,,,,,1494.5048,1500.0925,0.503333333,-0.311666667,1,0,0,5.5695,Vrai,0,18,18,18,1,,
,,,,,P008,001,2025-01-16_14h08.43.643,Emotion.Memoire.2024,2024.1.5,Win32,59.17159763,,,,,,,,,,,,,,IMAGES_EXP_mp4_40/ANIMEES/10- ANIMEES --NEGATIVES /Video7.mp4,IMAGES_EXP_mp4_40/FIXES/FIX-NEUTRE-mp4/image7.mp4,,,,,,,,,,,,1500.093,1502.1608,0.491666667,-0.295,1,0,0,2.067,Vrai,0,19,19,19,1,,
,,,,,P008,001,2025-01-16_14h08.43.643,Emotion.Memoire.2024,2024.1.5,Win32,59.17159763,,,,,,,,,,,,,,IMAGES_EXP_mp4_40/FIXES/FIX-NEUTRE-mp4/image5.mp4,IMAGES_EXP_mp4_40/ANIMEES/10- ANIMEES --NEGATIVES /Video10.mp4,,,,,,,,,,,,1502.162,1503.7125,0.505833333,-0.3175,1,0,0,1.539,Vrai,0,20,20,20,1,,
,,,,,P008,001,2025-01-16_14h08.43.643,Emotion.Memoire.2024,2024.1.5,Win32,59.17159763,,,,,,,,,,,,,,IMAGES_EXP_mp4_40/ANIMEES/11-ANIMEES --- NEUTRES /video3.mp4,IMAGES_EXP_mp4_40/ANIMEES/10- ANIMEES --NEGATIVES /Video4.mp4,,,,,,,,,,,,1503.7129,1505.5715,0.505833333,-0.3175,1,0,0,1.7273,Vrai,0,21,21,21,1,,
,,,,,P008,001,2025-01-16_14h08.43.643,Emotion.Memoire.2024,2024.1.5,Win32,59.17159763,,,,,,,,,,,,,,IMAGES_EXP_mp4_40/ANIMEES/10- ANIMEES --NEGATIVES /Video5.mp4,IMAGES_EXP_mp4_40/ANIMEES/10- ANIMEES --NEGATIVES /Video5.mp4,,,,,,,,,,,,1505.572,1507.7485,0.515833333,-0.320833333,1,0,0,2.1513,Vrai,0,22,22,22,1,,
,,,,,P008,001,2025-01-16_14h08.43.643,Emotion.Memoire.2024,2024.1.5,Win32,59.17159763,,,,,,,,,,,,,,IMAGES_EXP_mp4_40/ANIMEES/11-ANIMEES --- NEUTRES /video7.mp4,IMAGES_EXP_mp4_40/ANIMEES/11-ANIMEES --- NEUTRES /video6.mp4,,,,,,,,,,,,1507.7498,1510.0252,0.489166667,-0.313333333,1,0,0,2.2476,Vrai,0,23,23,23,1,,
,,,,,P008,001,2025-01-16_14h08.43.643,Emotion.Memoire.2024,2024.1.5,Win32,59.17159763,,,,,,,,,,,,,,IMAGES_EXP_mp4_40/FIXES/FIX-NEGATIF-mp4/Image8.mp4,IMAGES_EXP_mp4_40/ANIMEES/11-ANIMEES --- NEUTRES /video5.mp4,,,,,,,,,,,,1510.0256,1512.1848,0.485833333,-0.315,1,0,0,2.1586,Vrai,0,24,24,24,1,,
,,,,,P008,001,2025-01-16_14h08.43.643,Emotion.Memoire.2024,2024.1.5,Win32,59.17159763,,,,,,,,,,,,,,IMAGES_EXP_mp4_40/FIXES/FIX-NEGATIF-mp4/Image2.mp4,DISTRACTEURS-40/DIST.ANIMÉES-20/10.NÉGATIFS/Dist.animee.negatif5.mp4,,,,,,,,,,,,1512.1854,1514.3535,-0.489166667,-0.2975,1,0,0,2.0445,Faux,0,25,25,25,1,,
,,,,,P008,001,2025-01-16_14h08.43.643,Emotion.Memoire.2024,2024.1.5,Win32,59.17159763,,,,,,,,,,,,,,IMAGES_EXP_mp4_40/FIXES/FIX-NEUTRE-mp4/image7.mp4,DISTRACTEURS-40/DIST.ANIMÉES-20/10.NEUTRES/Dist.animee.neutre4.mp4,,,,,,,,,,,,1514.3543,1516.8054,-0.505833333,-0.288333333,1,0,0,2.4312,Faux,0,26,26,26,1,,
,,,,,P008,001,2025-01-16_14h08.43.643,Emotion.Memoire.2024,2024.1.5,Win32,59.17159763,,,,,,,,,,,,,,IMAGES_EXP_mp4_40/ANIMEES/11-ANIMEES --- NEUTRES /video4.mp4,DISTRACTEURS-40/DIST.FIXES-20/10.NEUTRES /Dist.fix.neutre10.mp4,,,,,,,,,,,,1516.8064,1520.6274,-0.480833333,-0.294166667,1,0,0,3.7499,Faux,0,27,27,27,1,,
,,,,,P008,001,2025-01-16_14h08.43.643,Emotion.Memoire.2024,2024.1.5,Win32,59.17159763,,,,,,,,,,,,,,IMAGES_EXP_mp4_40/FIXES/FIX-NEGATIF-mp4/Image1.mp4,IMAGES_EXP_mp4_40/FIXES/FIX-NEGATIF-mp4/Image3.mp4,,,,,,,,,,,,1520.6279,1522.5263,0.4775,-0.315833333,1,0,0,1.7123,Vrai,0,28,28,28,1,,
,,,,,P008,001,2025-01-16_14h08.43.643,Emotion.Memoire.2024,2024.1.5,Win32,59.17159763,,,,,,,,,,,,,,IMAGES_EXP_mp4_40/ANIMEES/10- ANIMEES --NEGATIVES /Video10.mp4,DISTRACTEURS-40/DIST.FIXES-20/10.NÉGATIFS/Dist.fix.negatif6.mp4,,,,,,,,,,,,1522.5268,1536.4707,-0.501666667,-0.2875,1,0,0,13.8619,Faux,0,29,29,29,1,,
,,,,,P008,001,2025-01-16_14h08.43.643,Emotion.Memoire.2024,2024.1.5,Win32,59.17159763,,,,,,,,,,,,,,IMAGES_EXP_mp4_40/ANIMEES/11-ANIMEES --- NEUTRES /video8.mp4,IMAGES_EXP_mp4_40/ANIMEES/11-ANIMEES --- NEUTRES /video1.mp4,,,,,,,,,,,,1536.4719,1560.0892,0.514166667,-0.290833333,1,0,0,23.2036,Vrai,0,30,30,30,1,,
,,,,,P008,001,2025-01-16_14h08.43.643,Emotion.Memoire.2024,2024.1.5,Win32,59.17159763,,,,,,,,,,,,,,IMAGES_EXP_mp4_40/FIXES/FIX-NEUTRE-mp4/image6.mp4,IMAGES_EXP_mp4_40/FIXES/FIX-NEUTRE-mp4/image9.mp4,,,,,,,,,,,,1560.0902,1564.1756,0.5075,-0.303333333,1,0,0,4.0298,Vrai,0,31,31,31,1,,
,,,,,P008,001,2025-01-16_14h08.43.643,Emotion.Memoire.2024,2024.1.5,Win32,59.17159763,,,,,,,,,,,,,,IMAGES_EXP_mp4_40/ANIMEES/10- ANIMEES --NEGATIVES /Video2.mp4,IMAGES_EXP_mp4_40/ANIMEES/10- ANIMEES --NEGATIVES /Video6.mp4,,,,,,,,,,,,1564.1761,1566.2608,0.491666667,-0.298333333,1,0,0,2.0835,Vrai,0,32,32,32,1,,
,,,,,P008,001,2025-01-16_14h08.43.643,Emotion.Memoire.2024,2024.1.5,Win32,59.17159763,,,,,,,,,,,,,,IMAGES_EXP_mp4_40/ANIMEES/10- ANIMEES --NEGATIVES /Video3.mp4,IMAGES_EXP_mp4_40/ANIMEES/11-ANIMEES --- NEUTRES /video3.mp4,,,,,,,,,,,,1566.2616,1569.1629,0.490833333,-0.3025,1,0,0,2.2404,Vrai,0,33,33,33,1,,
,,,,,P008,001,2025-01-16_14h08.43.643,Emotion.Memoire.2024,2024.1.5,Win32,59.17159763,,,,,,,,,,,,,,IMAGES_EXP_mp4_40/FIXES/FIX-NEUTRE-mp4/image2.mp4,DISTRACTEURS-40/DIST.ANIMÉES-20/10.NÉGATIFS/Dist.animee.negatif7.mp4,,,,,,,,,,,,1569.1637,1571.6747,-0.4975,-0.290833333,1,0,0,2.3866,Faux,0,34,34,34,1,,
,,,,,P008,001,2025-01-16_14h08.43.643,Emotion.Memoire.2024,2024.1.5,Win32,59.17159763,,,,,,,,,,,,,,IMAGES_EXP_mp4_40/FIXES/FIX-NEUTRE-mp4/image3.mp4,IMAGES_EXP_mp4_40/ANIMEES/11-ANIMEES --- NEUTRES /video9.mp4,,,,,,,,,,,,1571.6752,1573.7217,0.509166667,-0.298333333,1,0,0,2.0302,Vrai,0,35,35,35,1,,
,,,,,P008,001,2025-01-16_14h08.43.643,Emotion.Memoire.2024,2024.1.5,Win32,59.17159763,,,,,,,,,,,,,,IMAGES_EXP_mp4_40/FIXES/FIX-NEGATIF-mp4/Image9.mp4,DISTRACTEURS-40/DIST.ANIMÉES-20/10.NEUTRES/Dist.animee.neutre6.mp4,,,,,,,,,,,,1573.7223,1576.8036,-0.51,-0.295833333,1,0,0,2.9789,Faux,0,36,36,36,1,,
,,,,,P008,001,2025-01-16_14h08.43.643,Emotion.Memoire.2024,2024.1.5,Win32,59.17159763,,,,,,,,,,,,,,IMAGES_EXP_mp4_40/FIXES/FIX-NEGATIF-mp4/Image7.mp4,IMAGES_EXP_mp4_40/FIXES/FIX-NEGATIF-mp4/Image8.mp4,,,,,,,,,,,,1576.804,1579.3208,0.495,-0.313333333,1,0,0,2.4884,Vrai,0,37,37,37,1,,
,,,,,P008,001,2025-01-16_14h08.43.643,Emotion.Memoire.2024,2024.1.5,Win32,59.17159763,,,,,,,,,,,,,,IMAGES_EXP_mp4_40/ANIMEES/10- ANIMEES --NEGATIVES /Video6.mp4,IMAGES_EXP_mp4_40/FIXES/FIX-NEUTRE-mp4/image8.mp4,,,,,,,,,,,,1579.3215,1580.9284,0.4975,-0.3125,1,0,0,1.6062,Vrai,0,38,38,38,1,,
,,,,,P008,001,2025-01-16_14h08.43.643,Emotion.Memoire.2024,2024.1.5,Win32,59.17159763,,,,,,,,,,,,,,IMAGES_EXP_mp4_40/FIXES/FIX-NEUTRE-mp4/image1.mp4,IMAGES_EXP_mp4_40/ANIMEES/11-ANIMEES --- NEUTRES /video7.mp4,,,,,,,,,,,,1580.9289,1583.3904,0.505,-0.280833333,1,0,0,2.3041,Vrai,0,39,39,39,1,,
,,,,,P008,001,2025-01-16_14h08.43.643,Emotion.Memoire.2024,2024.1.5,Win32,59.17159763,,,,,,,,,,,,,,IMAGES_EXP_mp4_40/ANIMEES/10- ANIMEES --NEGATIVES /Video1.mp4,DISTRACTEURS-40/DIST.ANIMÉES-20/10.NÉGATIFS/Dist.animee.negatif1.mp4,,,,,,,,,,,,1583.3912,1586.6012,-0.490833333,-0.298333333,1,0,0,2.7992,Faux,0,40,40,40,1,,
,,,,,P008,001,2025-01-16_14h08.43.643,Emotion.Memoire.2024,2024.1.5,Win32,59.17159763,,,,,,,,,,,,,,,DISTRACTEURS-40/DIST.FIXES-20/10.NEUTRES /Dist.fix.neutre9.mp4,,,,,,,,,,,,1586.6018,1588.7643,-0.475833333,-0.293333333,1,0,0,2.1612,Faux,0,41,41,41,1,,
,,,,,P008,001,2025-01-16_14h08.43.643,Emotion.Memoire.2024,2024.1.5,Win32,59.17159763,,,,,,,,,,,,,,,DISTRACTEURS-40/DIST.FIXES-20/10.NÉGATIFS/Dist.fix.negatif7.mp4,,,,,,,,,,,,1588.7647,1600.9253,-0.498333333,-0.288333333,1,0,0,11.8094,Faux,0,42,42,42,1,,
,,,,,P008,001,2025-01-16_14h08.43.643,Emotion.Memoire.2024,2024.1.5,Win32,59.17159763,,,,,,,,,,,,,,,DISTRACTEURS-40/DIST.ANIMÉES-20/10.NEUTRES/Dist.animee.neutre9.mp4,,,,,,,,,,,,1600.9262,1603.1063,-0.4875,-0.290833333,1,0,0,2.0893,Faux,0,43,43,43,1,,
,,,,,P008,001,2025-01-16_14h08.43.643,Emotion.Memoire.2024,2024.1.5,Win32,59.17159763,,,,,,,,,,,,,,,DISTRACTEURS-40/DIST.FIXES-20/10.NÉGATIFS/Dist.fix.negatif1.mp4,,,,,,,,,,,,1603.1069,1605.0907,-0.489166667,-0.288333333,1,0,0,1.8938,Faux,0,44,44,44,1,,
,,,,,P008,001,2025-01-16_14h08.43.643,Emotion.Memoire.2024,2024.1.5,Win32,59.17159763,,,,,,,,,,,,,,,DISTRACTEURS-40/DIST.ANIMÉES-20/10.NÉGATIFS/Dist.animee.negatif6.mp4,,,,,,,,,,,,1605.0913,1607.9377,-0.504166667,-0.298333333,1,0,0,2.8456,Faux,0,45,45,45,1,,
,,,,,P008,001,2025-01-16_14h08.43.643,Emotion.Memoire.2024,2024.1.5,Win32,59.17159763,,,,,,,,,,,,,,,DISTRACTEURS-40/DIST.ANIMÉES-20/10.NÉGATIFS/Dist.animee.negatif2.mp4,,,,,,,,,,,,1607.9384,1609.5899,-0.486666667,-0.2875,1,0,0,1.6353,Faux,0,46,46,46,1,,
,,,,,P008,001,2025-01-16_14h08.43.643,Emotion.Memoire.2024,2024.1.5,Win32,59.17159763,,,,,,,,,,,,,,,IMAGES_EXP_mp4_40/FIXES/FIX-NEGATIF-mp4/Image4.mp4,,,,,,,,,,,,1609.5908,1611.3773,0.506666667,-0.289166667,1,0,0,1.6136,Vrai,0,47,47,47,1,,
,,,,,P008,001,2025-01-16_14h08.43.643,Emotion.Memoire.2024,2024.1.5,Win32,59.17159763,,,,,,,,,,,,,,,IMAGES_EXP_mp4_40/ANIMEES/10- ANIMEES --NEGATIVES /Video7.mp4,,,,,,,,,,,,1611.3786,1614.4651,0.499166667,-0.3025,1,0,0,2.9875,Vrai,0,48,48,48,1,,
,,,,,P008,001,2025-01-16_14h08.43.643,Emotion.Memoire.2024,2024.1.5,Win32,59.17159763,,,,,,,,,,,,,,,IMAGES_EXP_mp4_40/FIXES/FIX-NEUTRE-mp4/image4.mp4,,,,,,,,,,,,1614.4665,1616.49,0.498333333,-0.300833333,1,0,0,1.8074,Vrai,0,49,49,49,1,,
,,,,,P008,001,2025-01-16_14h08.43.643,Emotion.Memoire.2024,2024.1.5,Win32,59.17159763,,,,,,,,,,,,,,,DISTRACTEURS-40/DIST.FIXES-20/10.NÉGATIFS/Dist.fix.negatif5.mp4,,,,,,,,,,,,1616.4908,1621.5507,-0.5025,-0.303333333,1,0,0,4.9428,Faux,0,50,50,50,1,,
,,,,,P008,001,2025-01-16_14h08.43.643,Emotion.Memoire.2024,2024.1.5,Win32,59.17159763,,,,,,,,,,,,,,,DISTRACTEURS-40/DIST.ANIMÉES-20/10.NÉGATIFS/Dist.animee.negatif9.mp4,,,,,,,,,,,,1621.5513,1624.2119,-0.494166667,-0.281666667,1,0,0,2.6399,Faux,0,51,51,51,1,,
,,,,,P008,001,2025-01-16_14h08.43.643,Emotion.Memoire.2024,2024.1.5,Win32,59.17159763,,,,,,,,,,,,,,,IMAGES_EXP_mp4_40/ANIMEES/11-ANIMEES --- NEUTRES /video2.mp4,,,,,,,,,,,,1624.2125,1634.5803,-0.476666667,-0.293333333,1,0,0,10.3667,Faux,0,52,52,52,1,,
,,,,,P008,001,2025-01-16_14h08.43.643,Emotion.Memoire.2024,2024.1.5,Win32,59.17159763,,,,,,,,,,,,,,,DISTRACTEURS-40/DIST.ANIMÉES-20/10.NEUTRES/Dist.animee.neutre5.mp4,,,,,,,,,,,,1634.5809,1645.2894,-0.4975,-0.291666667,1,0,0,10.5819,Faux,0,53,53,53,1,,
,,,,,P008,001,2025-01-16_14h08.43.643,Emotion.Memoire.2024,2024.1.5,Win32,59.17159763,,,,,,,,,,,,,,,IMAGES_EXP_mp4_40/FIXES/FIX-NEGATIF-mp4/Image7.mp4,,,,,,,,,,,,1645.29,1662.2232,-0.464166667,-0.2975,1,0,0,16.8261,Faux,0,54,54,54,1,,
,,,,,P008,001,2025-01-16_14h08.43.643,Emotion.Memoire.2024,2024.1.5,Win32,59.17159763,,,,,,,,,,,,,,,IMAGES_EXP_mp4_40/FIXES/FIX-NEGATIF-mp4/Image6.mp4,,,,,,,,,,,,1662.2239,1665.922,0.496666667,-0.3075,1,0,0,3.4759,Vrai,0,55,55,55,1,,
,,,,,P008,001,2025-01-16_14h08.43.643,Emotion.Memoire.2024,2024.1.5,Win32,59.17159763,,,,,,,,,,,,,,,IMAGES_EXP_mp4_40/FIXES/FIX-NEGATIF-mp4/Image5.mp4,,,,,,,,,,,,1665.9225,1669.1241,0.496666667,-0.3075,1,0,0,3.1151,Vrai,0,56,56,56,1,,
,,,,,P008,001,2025-01-16_14h08.43.643,Emotion.Memoire.2024,2024.1.5,Win32,59.17159763,,,,,,,,,,,,,,,IMAGES_EXP_mp4_40/ANIMEES/11-ANIMEES --- NEUTRES /video10.mp4,,,,,,,,,,,,1669.1247,1672.8801,0.496666667,-0.3075,1,0,0,3.6126,Vrai,0,57,57,57,1,,
,,,,,P008,001,2025-01-16_14h08.43.643,Emotion.Memoire.2024,2024.1.5,Win32,59.17159763,,,,,,,,,,,,,,,DISTRACTEURS-40/DIST.FIXES-20/10.NEUTRES /Dist.fix.neutre4.mp4,,,,,,,,,,,,1672.8806,1676.0819,-0.476666667,-0.295,1,0,0,3.1023,Faux,0,58,58,58,1,,
,,,,,P008,001,2025-01-16_14h08.43.643,Emotion.Memoire.2024,2024.1.5,Win32,59.17159763,,,,,,,,,,,,,,,IMAGES_EXP_mp4_40/ANIMEES/11-ANIMEES --- NEUTRES /video4.mp4,,,,,,,,,,,,1676.0823,1679.9238,0.508333333,-0.299166667,1,0,0,3.7777,Vrai,0,59,59,59,1,,
,,,,,P008,001,2025-01-16_14h08.43.643,Emotion.Memoire.2024,2024.1.5,Win32,59.17159763,,,,,,,,,,,,,,,DISTRACTEURS-40/DIST.FIXES-20/10.NEUTRES /Dist.fix.neutre6.mp4,,,,,,,,,,,,1679.9243,1689.2068,-0.501666667,-0.285,1,0,0,9.2269,Faux,0,60,60,60,1,,
,,,,,P008,001,2025-01-16_14h08.43.643,Emotion.Memoire.2024,2024.1.5,Win32,59.17159763,,,,,,,,,,,,,,,DISTRACTEURS-40/DIST.FIXES-20/10.NEUTRES /Dist.fix.neutre3.mp4,,,,,,,,,,,,1689.2073,1692.4764,-0.4925,-0.296666667,1,0,0,3.2516,Faux,0,61,61,61,1,,
,,,,,P008,001,2025-01-16_14h08.43.643,Emotion.Memoire.2024,2024.1.5,Win32,59.17159763,,,,,,,,,,,,,,,DISTRACTEURS-40/DIST.FIXES-20/10.NÉGATIFS/Dist.fix.negatif10.mp4,,,,,,,,,,,,1692.4769,1695.7954,-0.498333333,-0.299166667,1,0,0,3.2809,Faux,0,62,62,62,1,,
,,,,,P008,001,2025-01-16_14h08.43.643,Emotion.Memoire.2024,2024.1.5,Win32,59.17159763,,,,,,,,,,,,,,,IMAGES_EXP_mp4_40/ANIMEES/10- ANIMEES --NEGATIVES /Video1.mp4,,,,,,,,,,,,1695.796,1698.9185,0.490833333,-0.314166667,1,0,0,2.8518,Vrai,0,63,63,63,1,,
,,,,,P008,001,2025-01-16_14h08.43.643,Emotion.Memoire.2024,2024.1.5,Win32,59.17159763,,,,,,,,,,,,,,,DISTRACTEURS-40/DIST.FIXES-20/10.NÉGATIFS/Dist.fix.negatif9.mp4,,,,,,,,,,,,1698.919,1701.0994,-0.480833333,-0.304166667,1,0,0,2.1622,Faux,0,64,64,64,1,,
,,,,,P008,001,2025-01-16_14h08.43.643,Emotion.Memoire.2024,2024.1.5,Win32,59.17159763,,,,,,,,,,,,,,,DISTRACTEURS-40/DIST.FIXES-20/10.NÉGATIFS/Dist.fix.negatif2.mp4,,,,,,,,,,,,1701.1,1706.5349,-0.501666667,-0.296666667,1,0,0,5.3426,Faux,0,65,65,65,1,,
,,,,,P008,001,2025-01-16_14h08.43.643,Emotion.Memoire.2024,2024.1.5,Win32,59.17159763,,,,,,,,,,,,,,,IMAGES_EXP_mp4_40/FIXES/FIX-NEUTRE-mp4/image10.mp4,,,,,,,,,,,,1706.5354,1708.1432,0.521666667,-0.286666667,1,0,0,1.5411,Vrai,0,66,66,66,1,,
,,,,,P008,001,2025-01-16_14h08.43.643,Emotion.Memoire.2024,2024.1.5,Win32,59.17159763,,,,,,,,,,,,,,,IMAGES_EXP_mp4_40/FIXES/FIX-NEGATIF-mp4/Image1.mp4,,,,,,,,,,,,1708.1437,1710.7984,0.504166667,-0.295,1,0,0,2.6422,Vrai,0,67,67,67,1,,
,,,,,P008,001,2025-01-16_14h08.43.643,Emotion.Memoire.2024,2024.1.5,Win32,59.17159763,,,,,,,,,,,,,,,IMAGES_EXP_mp4_40/ANIMEES/10- ANIMEES --NEGATIVES /Video3.mp4,,,,,,,,,,,,1710.799,1777.1958,0.1925,-0.054166667,1,0,0,47.3847,Faux,0,68,68,68,1,,
,,,,,P008,001,2025-01-16_14h08.43.643,Emotion.Memoire.2024,2024.1.5,Win32,59.17159763,,,,,,,,,,,,,,,DISTRACTEURS-40/DIST.FIXES-20/10.NEUTRES /Dist.fix.neutre1.mp4,,,,,,,,,,,,1777.7878,1792.5547,-0.5075,-0.29,1,0,0,14.4874,Faux,0,69,69,69,1,,
,,,,,P008,001,2025-01-16_14h08.43.643,Emotion.Memoire.2024,2024.1.5,Win32,59.17159763,,,,,,,,,,,,,,,DISTRACTEURS-40/DIST.FIXES-20/10.NÉGATIFS/Dist.fix.negatif3.mp4,,,,,,,,,,,,1792.5559,1796.5363,-0.508333333,-0.290833333,1,0,0,3.8712,Faux,0,70,70,70,1,,
,,,,,P008,001,2025-01-16_14h08.43.643,Emotion.Memoire.2024,2024.1.5,Win32,59.17159763,,,,,,,,,,,,,,,IMAGES_EXP_mp4_40/FIXES/FIX-NEUTRE-mp4/image3.mp4,,,,,,,,,,,,1796.5372,1799.4765,0.510833333,-0.2825,1,0,0,2.8792,Vrai,0,71,71,71,1,,
,,,,,P008,001,2025-01-16_14h08.43.643,Emotion.Memoire.2024,2024.1.5,Win32,59.17159763,,,,,,,,,,,,,,,IMAGES_EXP_mp4_40/FIXES/FIX-NEGATIF-mp4/Image10.mp4,,,,,,,,,,,,1799.4769,1802.098,0.510833333,-0.2825,1,0,0,2.5841,Vrai,0,72,72,72,1,,
,,,,,P008,001,2025-01-16_14h08.43.643,Emotion.Memoire.2024,2024.1.5,Win32,59.17159763,,,,,,,,,,,,,,,IMAGES_EXP_mp4_40/FIXES/FIX-NEUTRE-mp4/image1.mp4,,,,,,,,,,,,1802.0987,1804.8317,0.510833333,-0.2825,1,0,0,2.7314,Vrai,0,73,73,73,1,,
,,,,,P008,001,2025-01-16_14h08.43.643,Emotion.Memoire.2024,2024.1.5,Win32,59.17159763,,,,,,,,,,,,,,,DISTRACTEURS-40/DIST.ANIMÉES-20/10.NEUTRES/Dist.animee.neutre8.mp4,,,,,,,,,,,,1804.8322,1807.8727,-0.501666667,-0.285,1,0,0,2.9395,Faux,0,74,74,74,1,,
,,,,,P008,001,2025-01-16_14h08.43.643,Emotion.Memoire.2024,2024.1.5,Win32,59.17159763,,,,,,,,,,,,,,,DISTRACTEURS-40/DIST.FIXES-20/10.NÉGATIFS/Dist.fix.negatif4.mp4,,,,,,,,,,,,1807.8745,1811.182,-0.501666667,-0.285,1,0,0,3.1757,Faux,0,75,75,75,1,,
,,,,,P008,001,2025-01-16_14h08.43.643,Emotion.Memoire.2024,2024.1.5,Win32,59.17159763,,,,,,,,,,,,,,,DISTRACTEURS-40/DIST.ANIMÉES-20/10.NÉGATIFS/Dist.animee.negatif3.mp4,,,,,,,,,,,,1811.1825,1814.0288,-0.501666667,-0.285,1,0,0,2.8267,Faux,0,76,76,76,1,,
,,,,,P008,001,2025-01-16_14h08.43.643,Emotion.Memoire.2024,2024.1.5,Win32,59.17159763,,,,,,,,,,,,,,,DISTRACTEURS-40/DIST.ANIMÉES-20/10.NEUTRES/Dist.animee.neutre2.mp4,,,,,,,,,,,,1814.0294,1816.9236,-0.501666667,-0.285,1,0,0,2.8731,Faux,0,77,77,77,1,,
,,,,,P008,001,2025-01-16_14h08.43.643,Emotion.Memoire.2024,2024.1.5,Win32,59.17159763,,,,,,,,,,,,,,,IMAGES_EXP_mp4_40/ANIMEES/10- ANIMEES --NEGATIVES /Video9.mp4,,,,,,,,,,,,1816.9244,1820.3337,0.4875,-0.301666667,1,0,0,3.3762,Vrai,0,78,78,78,1,,
,,,,,P008,001,2025-01-16_14h08.43.643,Emotion.Memoire.2024,2024.1.5,Win32,59.17159763,,,,,,,,,,,,,,,DISTRACTEURS-40/DIST.ANIMÉES-20/10.NEUTRES/Dist.animee.neutre7.mp4,,,,,,,,,,,,1820.334,1823.6989,-0.5,-0.2975,1,0,0,3.2152,Faux,0,79,79,79,1,,
,,,,,P008,001,2025-01-16_14h08.43.643,Emotion.Memoire.2024,2024.1.5,Win32,59.17159763,,,,,,,,,,,,,,,,,,,,,,,,,,,,,,,,,,,,,,,,,1824.0637,1838.7072
