Consigne.started,Consigne.stopped,Key_resp1.keys,Key_resp1.rt,Key_resp1.duration,participant,session,date,expName,psychopyVersion,OS,frameRate,IMAGES.started,IMAGES.stopped,SAM.started,SAM.stopped,Plaisir.response,Plaisir.rt,EVEIL.response,EVEIL.rt,trials.thisRepN,trials.thisTrialN,trials.thisN,trials.thisIndex,trials.ran,ImageFile,ImagesDistracteursFile,Test,Calcul.started,Calcul.stopped,Key_response.keys,Key_response.rt,Key_response.duration,Consigne_reco.started,Consigne_reco.stopped,key_resp_reconn.keys,key_resp_reconn.rt,key_resp_reconn.duration,DISTRACTEURS.started,DISTRACTEURS.stopped,mouse.x,mouse.y,mouse.leftButton,mouse.midButton,mouse.rightButton,mouse.time,mouse.clicked_name,trials_2.thisRepN,trials_2.thisTrialN,trials_2.thisN,trials_2.thisIndex,trials_2.ran,MERCI.started,MERCI.stopped
0.0004,1.2703,space,1.1642,,P016,001,2025-06-10_15h56.33.107,Emotion.Memoire.2024,2024.1.5,MacIntel,57.14285714,,,,,,,,,,,,,,,,,,,,,,,,,,,,,,,,,,,,,,,,,,
,,,,,P016,001,2025-06-10_15h56.33.107,Emotion.Memoire.2024,2024.1.5,MacIntel,57.14285714,1.2788,11.27,11.2704,14.7709,1,2.3639,8,3.4958,0,0,0,0,1,IMAGES_EXP_mp4_40/FIXES/FIX-NEGATIF-mp4/Image6.mp4,DISTRACTEURS-40/DIST.ANIMÉES-20/10.NÉGATIFS/Dist.animee.negatif10.mp4,IMAGES_EXP_mp4_40/ANIMEES/10- ANIMEES --NEGATIVES /Video1.mp4,,,,,,,,,,,,,,,,,,,,,,,,,,
,,,,,P016,001,2025-06-10_15h56.33.107,Emotion.Memoire.2024,2024.1.5,MacIntel,57.14285714,14.7712,24.7702,24.7705,27.5543,5,1.7148,1,2.7791,0,1,1,1,1,IMAGES_EXP_mp4_40/FIXES/FIX-NEUTRE-mp4/image9.mp4,DISTRACTEURS-40/DIST.ANIMÉES-20/10.NEUTRES/Dist.animee.neutre3.mp4,DISTRACTEURS-40/DIST.FIXES-20/10.NÉGATIFS/Dist.fix.negatif3.mp4,,,,,,,,,,,,,,,,,,,,,,,,,,
,,,,,P016,001,2025-06-10_15h56.33.107,Emotion.Memoire.2024,2024.1.5,MacIntel,57.14285714,27.5548,37.555,37.5554,41.021,2,2.4292,9,3.4635,0,2,2,2,1,IMAGES_EXP_mp4_40/FIXES/FIX-NEGATIF-mp4/Image3.mp4,IMAGES_EXP_mp4_40/ANIMEES/10- ANIMEES --NEGATIVES /Video2.mp4,DISTRACTEURS-40/DIST.FIXES-20/10.NÉGATIFS/Dist.fix.negatif5.mp4,,,,,,,,,,,,,,,,,,,,,,,,,,
,,,,,P016,001,2025-06-10_15h56.33.107,Emotion.Memoire.2024,2024.1.5,MacIntel,57.14285714,41.0212,51.0207,51.0211,55.1214,2,3.382,8,4.0974,0,3,3,3,1,IMAGES_EXP_mp4_40/FIXES/FIX-NEGATIF-mp4/Image4.mp4,IMAGES_EXP_mp4_40/FIXES/FIX-NEUTRE-mp4/image6.mp4,,,,,,,,,,,,,,,,,,,,,,,,,,,
,,,,,P016,001,2025-06-10_15h56.33.107,Emotion.Memoire.2024,2024.1.5,MacIntel,57.14285714,55.1216,65.1218,65.1221,67.0707,1,0.8469,8,1.9468,0,4,4,4,1,IMAGES_EXP_mp4_40/FIXES/FIX-NEGATIF-mp4/Image10.mp4,IMAGES_EXP_mp4_40/FIXES/FIX-NEUTRE-mp4/image2.mp4,,,,,,,,,,,,,,,,,,,,,,,,,,,
,,,,,P016,001,2025-06-10_15h56.33.107,Emotion.Memoire.2024,2024.1.5,MacIntel,57.14285714,67.0711,77.0715,77.0717,81.8388,6,3.8147,3,4.7626,0,5,5,5,1,IMAGES_EXP_mp4_40/ANIMEES/11-ANIMEES --- NEUTRES /video10.mp4,DISTRACTEURS-40/DIST.FIXES-20/10.NEUTRES /Dist.fix.neutre7.mp4,,,,,,,,,,,,,,,,,,,,,,,,,,,
,,,,,P016,001,2025-06-10_15h56.33.107,Emotion.Memoire.2024,2024.1.5,MacIntel,57.14285714,81.839,91.839,91.8393,95.1045,3,2.2477,7,3.2636,0,6,6,6,1,IMAGES_EXP_mp4_40/ANIMEES/10- ANIMEES --NEGATIVES /Video4.mp4,DISTRACTEURS-40/DIST.ANIMÉES-20/10.NÉGATIFS/Dist.animee.negatif4.mp4,,,,,,,,,,,,,,,,,,,,,,,,,,,
,,,,,P016,001,2025-06-10_15h56.33.107,Emotion.Memoire.2024,2024.1.5,MacIntel,57.14285714,95.1048,105.1058,105.1062,109.2056,5,3.313,2,4.0971,0,7,7,7,1,IMAGES_EXP_mp4_40/FIXES/FIX-NEUTRE-mp4/image10.mp4,IMAGES_EXP_mp4_40/FIXES/FIX-NEGATIF-mp4/Image2.mp4,,,,,,,,,,,,,,,,,,,,,,,,,,,
,,,,,P016,001,2025-06-10_15h56.33.107,Emotion.Memoire.2024,2024.1.5,MacIntel,57.14285714,109.2058,119.1059,119.1061,121.6558,2,1.0479,8,2.5477,0,8,8,8,1,IMAGES_EXP_mp4_40/ANIMEES/10- ANIMEES --NEGATIVES /Video1.mp4,IMAGES_EXP_mp4_40/FIXES/FIX-NEGATIF-mp4/Image9.mp4,,,,,,,,,,,,,,,,,,,,,,,,,,,
,,,,,P016,001,2025-06-10_15h56.33.107,Emotion.Memoire.2024,2024.1.5,MacIntel,57.14285714,121.6561,131.6563,131.6565,136.356,4,4.163,4,4.6972,0,9,9,9,1,IMAGES_EXP_mp4_40/FIXES/FIX-NEUTRE-mp4/image4.mp4,DISTRACTEURS-40/DIST.FIXES-20/10.NEUTRES /Dist.fix.neutre8.mp4,,,,,,,,,,,,,,,,,,,,,,,,,,,
,,,,,P016,001,2025-06-10_15h56.33.107,Emotion.Memoire.2024,2024.1.5,MacIntel,57.14285714,136.3563,146.3564,146.3568,149.2228,4,2.0473,2,2.864,0,10,10,10,1,IMAGES_EXP_mp4_40/ANIMEES/11-ANIMEES --- NEUTRES /video6.mp4,DISTRACTEURS-40/DIST.ANIMÉES-20/10.NÉGATIFS/Dist.animee.negatif8.mp4,,,,,,,,,,,,,,,,,,,,,,,,,,,
,,,,,P016,001,2025-06-10_15h56.33.107,Emotion.Memoire.2024,2024.1.5,MacIntel,57.14285714,149.2232,159.2233,159.2235,162.0064,5,2.013,1,2.7798,0,11,11,11,1,IMAGES_EXP_mp4_40/ANIMEES/11-ANIMEES --- NEUTRES /video9.mp4,IMAGES_EXP_mp4_40/ANIMEES/11-ANIMEES --- NEUTRES /video8.mp4,,,,,,,,,,,,,,,,,,,,,,,,,,,
,,,,,P016,001,2025-06-10_15h56.33.107,Emotion.Memoire.2024,2024.1.5,MacIntel,57.14285714,162.0069,172.0066,172.0069,174.2225,5,1.9635,5,2.2035,0,12,12,12,1,IMAGES_EXP_mp4_40/FIXES/FIX-NEUTRE-mp4/image8.mp4,IMAGES_EXP_mp4_40/ANIMEES/10- ANIMEES --NEGATIVES /Video8.mp4,,,,,,,,,,,,,,,,,,,,,,,,,,,
,,,,,P016,001,2025-06-10_15h56.33.107,Emotion.Memoire.2024,2024.1.5,MacIntel,57.14285714,174.2228,184.2225,184.2227,186.639,5,1.5968,2,2.4129,0,13,13,13,1,IMAGES_EXP_mp4_40/ANIMEES/11-ANIMEES --- NEUTRES /video5.mp4,DISTRACTEURS-40/DIST.FIXES-20/10.NÉGATIFS/Dist.fix.negatif8.mp4,,,,,,,,,,,,,,,,,,,,,,,,,,,
,,,,,P016,001,2025-06-10_15h56.33.107,Emotion.Memoire.2024,2024.1.5,MacIntel,57.14285714,186.6393,196.6393,196.6396,200.2069,4,2.6149,2,3.5634,0,14,14,14,1,IMAGES_EXP_mp4_40/ANIMEES/11-ANIMEES --- NEUTRES /video1.mp4,DISTRACTEURS-40/DIST.FIXES-20/10.NEUTRES /Dist.fix.neutre2.mp4,,,,,,,,,,,,,,,,,,,,,,,,,,,
,,,,,P016,001,2025-06-10_15h56.33.107,Emotion.Memoire.2024,2024.1.5,MacIntel,57.14285714,200.2072,209.4237,209.4239,212.1737,2,1.6135,8,2.7478,0,15,15,15,1,IMAGES_EXP_mp4_40/ANIMEES/10- ANIMEES --NEGATIVES /Video9.mp4,DISTRACTEURS-40/DIST.ANIMÉES-20/10.NEUTRES/Dist.animee.neutre10.mp4,,,,,,,,,,,,,,,,,,,,,,,,,,,
,,,,,P016,001,2025-06-10_15h56.33.107,Emotion.Memoire.2024,2024.1.5,MacIntel,57.14285714,212.174,221.0075,221.0077,224.474,3,2.131,6,3.4635,0,16,16,16,1,IMAGES_EXP_mp4_40/ANIMEES/10- ANIMEES --NEGATIVES /Video8.mp4,DISTRACTEURS-40/DIST.FIXES-20/10.NEUTRES /Dist.fix.neutre5.mp4,,,,,,,,,,,,,,,,,,,,,,,,,,,
,,,,,P016,001,2025-06-10_15h56.33.107,Emotion.Memoire.2024,2024.1.5,MacIntel,57.14285714,224.4743,234.4743,234.4747,238.6076,2,2.4624,7,4.1303,0,17,17,17,1,IMAGES_EXP_mp4_40/FIXES/FIX-NEGATIF-mp4/Image5.mp4,DISTRACTEURS-40/DIST.ANIMÉES-20/10.NEUTRES/Dist.animee.neutre1.mp4,,,,,,,,,,,,,,,,,,,,,,,,,,,
,,,,,P016,001,2025-06-10_15h56.33.107,Emotion.Memoire.2024,2024.1.5,MacIntel,57.14285714,238.608,248.6079,248.6082,252.19,5,2.6466,1,3.5791,0,18,18,18,1,IMAGES_EXP_mp4_40/ANIMEES/11-ANIMEES --- NEUTRES /video2.mp4,IMAGES_EXP_mp4_40/FIXES/FIX-NEUTRE-mp4/image5.mp4,,,,,,,,,,,,,,,,,,,,,,,,,,,
,,,,,P016,001,2025-06-10_15h56.33.107,Emotion.Memoire.2024,2024.1.5,MacIntel,57.14285714,252.1902,262.1903,262.1905,265.0912,2,1.2146,8,2.8982,0,19,19,19,1,IMAGES_EXP_mp4_40/ANIMEES/10- ANIMEES --NEGATIVES /Video7.mp4,IMAGES_EXP_mp4_40/FIXES/FIX-NEUTRE-mp4/image7.mp4,,,,,,,,,,,,,,,,,,,,,,,,,,,
,,,,,P016,001,2025-06-10_15h56.33.107,Emotion.Memoire.2024,2024.1.5,MacIntel,57.14285714,265.0914,275.0918,275.0922,279.7404,6,3.6964,2,4.6446,0,20,20,20,1,IMAGES_EXP_mp4_40/FIXES/FIX-NEUTRE-mp4/image5.mp4,IMAGES_EXP_mp4_40/ANIMEES/10- ANIMEES --NEGATIVES /Video10.mp4,,,,,,,,,,,,,,,,,,,,,,,,,,,
,,,,,P016,001,2025-06-10_15h56.33.107,Emotion.Memoire.2024,2024.1.5,MacIntel,57.14285714,279.7409,289.7409,289.7411,292.9416,5,2.5641,2,3.1966,0,21,21,21,1,IMAGES_EXP_mp4_40/ANIMEES/11-ANIMEES --- NEUTRES /video3.mp4,IMAGES_EXP_mp4_40/ANIMEES/10- ANIMEES --NEGATIVES /Video4.mp4,,,,,,,,,,,,,,,,,,,,,,,,,,,
,,,,,P016,001,2025-06-10_15h56.33.107,Emotion.Memoire.2024,2024.1.5,MacIntel,57.14285714,292.9419,302.9418,302.9423,305.6251,2,1.4971,6,2.6793,0,22,22,22,1,IMAGES_EXP_mp4_40/ANIMEES/10- ANIMEES --NEGATIVES /Video5.mp4,IMAGES_EXP_mp4_40/ANIMEES/10- ANIMEES --NEGATIVES /Video5.mp4,,,,,,,,,,,,,,,,,,,,,,,,,,,
,,,,,P016,001,2025-06-10_15h56.33.107,Emotion.Memoire.2024,2024.1.5,MacIntel,57.14285714,305.6254,315.6262,315.63,320.9411,5,4.4421,2,5.3076,0,23,23,23,1,IMAGES_EXP_mp4_40/ANIMEES/11-ANIMEES --- NEUTRES /video7.mp4,IMAGES_EXP_mp4_40/ANIMEES/11-ANIMEES --- NEUTRES /video6.mp4,,,,,,,,,,,,,,,,,,,,,,,,,,,
,,,,,P016,001,2025-06-10_15h56.33.107,Emotion.Memoire.2024,2024.1.5,MacIntel,57.14285714,320.9417,330.9413,330.9416,335.1256,4,2.1648,6,4.1804,0,24,24,24,1,IMAGES_EXP_mp4_40/FIXES/FIX-NEGATIF-mp4/Image8.mp4,IMAGES_EXP_mp4_40/ANIMEES/11-ANIMEES --- NEUTRES /video5.mp4,,,,,,,,,,,,,,,,,,,,,,,,,,,
,,,,,P016,001,2025-06-10_15h56.33.107,Emotion.Memoire.2024,2024.1.5,MacIntel,57.14285714,335.1258,345.125,345.1252,347.1424,4,1.5313,4,2.0145,0,25,25,25,1,IMAGES_EXP_mp4_40/FIXES/FIX-NEGATIF-mp4/Image2.mp4,DISTRACTEURS-40/DIST.ANIMÉES-20/10.NÉGATIFS/Dist.animee.negatif5.mp4,,,,,,,,,,,,,,,,,,,,,,,,,,,
,,,,,P016,001,2025-06-10_15h56.33.107,Emotion.Memoire.2024,2024.1.5,MacIntel,57.14285714,347.1427,357.1428,357.1434,360.5092,5,2.0636,2,3.3627,0,26,26,26,1,IMAGES_EXP_mp4_40/FIXES/FIX-NEUTRE-mp4/image7.mp4,DISTRACTEURS-40/DIST.ANIMÉES-20/10.NEUTRES/Dist.animee.neutre4.mp4,,,,,,,,,,,,,,,,,,,,,,,,,,,
,,,,,P016,001,2025-06-10_15h56.33.107,Emotion.Memoire.2024,2024.1.5,MacIntel,57.14285714,360.5094,370.5096,370.5099,375.9428,5,2.6459,2,5.4306,0,27,27,27,1,IMAGES_EXP_mp4_40/ANIMEES/11-ANIMEES --- NEUTRES /video4.mp4,DISTRACTEURS-40/DIST.FIXES-20/10.NEUTRES /Dist.fix.neutre10.mp4,,,,,,,,,,,,,,,,,,,,,,,,,,,
,,,,,P016,001,2025-06-10_15h56.33.107,Emotion.Memoire.2024,2024.1.5,MacIntel,57.14285714,375.943,385.9431,385.9433,388.16,2,1.2948,2,2.2123,0,28,28,28,1,IMAGES_EXP_mp4_40/FIXES/FIX-NEGATIF-mp4/Image1.mp4,IMAGES_EXP_mp4_40/FIXES/FIX-NEGATIF-mp4/Image3.mp4,,,,,,,,,,,,,,,,,,,,,,,,,,,
,,,,,P016,001,2025-06-10_15h56.33.107,Emotion.Memoire.2024,2024.1.5,MacIntel,57.14285714,388.1604,398.1601,398.1602,401.8598,4,2.9807,4,3.6961,0,29,29,29,1,IMAGES_EXP_mp4_40/ANIMEES/10- ANIMEES --NEGATIVES /Video10.mp4,DISTRACTEURS-40/DIST.FIXES-20/10.NÉGATIFS/Dist.fix.negatif6.mp4,,,,,,,,,,,,,,,,,,,,,,,,,,,
,,,,,P016,001,2025-06-10_15h56.33.107,Emotion.Memoire.2024,2024.1.5,MacIntel,57.14285714,401.8601,411.8607,411.8614,414.7601,5,1.8271,2,2.8954,0,30,30,30,1,IMAGES_EXP_mp4_40/ANIMEES/11-ANIMEES --- NEUTRES /video8.mp4,IMAGES_EXP_mp4_40/ANIMEES/11-ANIMEES --- NEUTRES /video1.mp4,,,,,,,,,,,,,,,,,,,,,,,,,,,
,,,,,P016,001,2025-06-10_15h56.33.107,Emotion.Memoire.2024,2024.1.5,MacIntel,57.14285714,414.7607,424.7595,424.7597,428.7094,5,3.1129,3,3.9477,0,31,31,31,1,IMAGES_EXP_mp4_40/FIXES/FIX-NEUTRE-mp4/image6.mp4,IMAGES_EXP_mp4_40/FIXES/FIX-NEUTRE-mp4/image9.mp4,,,,,,,,,,,,,,,,,,,,,,,,,,,
,,,,,P016,001,2025-06-10_15h56.33.107,Emotion.Memoire.2024,2024.1.5,MacIntel,57.14285714,428.7097,438.7107,438.7111,442.3271,3,2.0296,7,3.6116,0,32,32,32,1,IMAGES_EXP_mp4_40/ANIMEES/10- ANIMEES --NEGATIVES /Video2.mp4,IMAGES_EXP_mp4_40/ANIMEES/10- ANIMEES --NEGATIVES /Video6.mp4,,,,,,,,,,,,,,,,,,,,,,,,,,,
,,,,,P016,001,2025-06-10_15h56.33.107,Emotion.Memoire.2024,2024.1.5,MacIntel,57.14285714,442.3276,452.3261,452.3262,455.2764,2,2.0131,8,2.9487,0,33,33,33,1,IMAGES_EXP_mp4_40/ANIMEES/10- ANIMEES --NEGATIVES /Video3.mp4,IMAGES_EXP_mp4_40/ANIMEES/11-ANIMEES --- NEUTRES /video3.mp4,,,,,,,,,,,,,,,,,,,,,,,,,,,
,,,,,P016,001,2025-06-10_15h56.33.107,Emotion.Memoire.2024,2024.1.5,MacIntel,57.14285714,455.2769,465.2778,465.2783,467.6275,5,1.5965,1,2.3456,0,34,34,34,1,IMAGES_EXP_mp4_40/FIXES/FIX-NEUTRE-mp4/image2.mp4,DISTRACTEURS-40/DIST.ANIMÉES-20/10.NÉGATIFS/Dist.animee.negatif7.mp4,,,,,,,,,,,,,,,,,,,,,,,,,,,
,,,,,P016,001,2025-06-10_15h56.33.107,Emotion.Memoire.2024,2024.1.5,MacIntel,57.14285714,467.6278,477.6278,477.628,480.4944,5,1.664,2,2.8617,0,35,35,35,1,IMAGES_EXP_mp4_40/FIXES/FIX-NEUTRE-mp4/image3.mp4,IMAGES_EXP_mp4_40/ANIMEES/11-ANIMEES --- NEUTRES /video9.mp4,,,,,,,,,,,,,,,,,,,,,,,,,,,
,,,,,P016,001,2025-06-10_15h56.33.107,Emotion.Memoire.2024,2024.1.5,MacIntel,57.14285714,480.4946,490.4947,490.4983,493.1113,3,1.6922,8,2.6076,0,36,36,36,1,IMAGES_EXP_mp4_40/FIXES/FIX-NEGATIF-mp4/Image9.mp4,DISTRACTEURS-40/DIST.ANIMÉES-20/10.NEUTRES/Dist.animee.neutre6.mp4,,,,,,,,,,,,,,,,,,,,,,,,,,,
,,,,,P016,001,2025-06-10_15h56.33.107,Emotion.Memoire.2024,2024.1.5,MacIntel,57.14285714,493.1118,503.1116,503.1123,505.5939,3,1.7634,8,2.4802,0,37,37,37,1,IMAGES_EXP_mp4_40/FIXES/FIX-NEGATIF-mp4/Image7.mp4,IMAGES_EXP_mp4_40/FIXES/FIX-NEGATIF-mp4/Image8.mp4,,,,,,,,,,,,,,,,,,,,,,,,,,,
,,,,,P016,001,2025-06-10_15h56.33.107,Emotion.Memoire.2024,2024.1.5,MacIntel,57.14285714,505.5943,515.5938,515.594,519.3948,1,2.7628,9,3.7965,0,38,38,38,1,IMAGES_EXP_mp4_40/ANIMEES/10- ANIMEES --NEGATIVES /Video6.mp4,IMAGES_EXP_mp4_40/FIXES/FIX-NEUTRE-mp4/image8.mp4,,,,,,,,,,,,,,,,,,,,,,,,,,,
,,,,,P016,001,2025-06-10_15h56.33.107,Emotion.Memoire.2024,2024.1.5,MacIntel,57.14285714,519.3953,529.3944,529.3947,532.4785,5,2.448,1,3.0806,0,39,39,39,1,IMAGES_EXP_mp4_40/FIXES/FIX-NEUTRE-mp4/image1.mp4,IMAGES_EXP_mp4_40/ANIMEES/11-ANIMEES --- NEUTRES /video7.mp4,,,,,,,,,,,,,,,,,,,,,,,,,,,
,,,,,P016,001,2025-06-10_15h56.33.107,Emotion.Memoire.2024,2024.1.5,MacIntel,57.14285714,,,,,,,,,,,,,,,,,532.4825,533.3291,space,0.7868,,,,,,,,,,,,,,,,,,,,,,
,,,,,P016,001,2025-06-10_15h56.33.107,Emotion.Memoire.2024,2024.1.5,MacIntel,57.14285714,,,,,,,,,,,,,,,,,,,,,,533.3293,534.2119,space,0.756,,,,,,,,,,,,,,,,,
,,,,,P016,001,2025-06-10_15h56.33.107,Emotion.Memoire.2024,2024.1.5,MacIntel,57.14285714,,,,,,,,,,,,,,IMAGES_EXP_mp4_40/FIXES/FIX-NEGATIF-mp4/Image6.mp4,DISTRACTEURS-40/DIST.ANIMÉES-20/10.NÉGATIFS/Dist.animee.negatif10.mp4,IMAGES_EXP_mp4_40/ANIMEES/10- ANIMEES --NEGATIVES /Video1.mp4,,,,,,,,,,,534.2234,535.2116,-0.481163194,-0.292309028,1,0,0,0.9863,Faux,0,0,0,0,1,,
,,,,,P016,001,2025-06-10_15h56.33.107,Emotion.Memoire.2024,2024.1.5,MacIntel,57.14285714,,,,,,,,,,,,,,IMAGES_EXP_mp4_40/FIXES/FIX-NEUTRE-mp4/image9.mp4,DISTRACTEURS-40/DIST.ANIMÉES-20/10.NEUTRES/Dist.animee.neutre3.mp4,DISTRACTEURS-40/DIST.FIXES-20/10.NÉGATIFS/Dist.fix.negatif3.mp4,,,,,,,,,,,535.2119,535.7617,-0.481163194,-0.292443576,1,0,0,0.5482,Faux,0,1,1,1,1,,
,,,,,P016,001,2025-06-10_15h56.33.107,Emotion.Memoire.2024,2024.1.5,MacIntel,57.14285714,,,,,,,,,,,,,,IMAGES_EXP_mp4_40/FIXES/FIX-NEGATIF-mp4/Image3.mp4,IMAGES_EXP_mp4_40/ANIMEES/10- ANIMEES --NEGATIVES /Video2.mp4,DISTRACTEURS-40/DIST.FIXES-20/10.NÉGATIFS/Dist.fix.negatif5.mp4,,,,,,,,,,,535.762,537.095,0.465486111,-0.338502604,1,0,0,1.3304,Vrai,0,2,2,2,1,,
,,,,,P016,001,2025-06-10_15h56.33.107,Emotion.Memoire.2024,2024.1.5,MacIntel,57.14285714,,,,,,,,,,,,,,IMAGES_EXP_mp4_40/FIXES/FIX-NEGATIF-mp4/Image4.mp4,IMAGES_EXP_mp4_40/FIXES/FIX-NEUTRE-mp4/image6.mp4,,,,,,,,,,,,537.0954,537.8618,0.576866319,-0.340564236,1,0,0,0.7656,Vrai,0,3,3,3,1,,
,,,,,P016,001,2025-06-10_15h56.33.107,Emotion.Memoire.2024,2024.1.5,MacIntel,57.14285714,,,,,,,,,,,,,,IMAGES_EXP_mp4_40/FIXES/FIX-NEGATIF-mp4/Image10.mp4,IMAGES_EXP_mp4_40/FIXES/FIX-NEUTRE-mp4/image2.mp4,,,,,,,,,,,,537.8624,538.4119,0.559366319,-0.339483507,1,0,0,0.5485,Vrai,0,4,4,4,1,,
,,,,,P016,001,2025-06-10_15h56.33.107,Emotion.Memoire.2024,2024.1.5,MacIntel,57.14285714,,,,,,,,,,,,,,IMAGES_EXP_mp4_40/ANIMEES/11-ANIMEES --- NEUTRES /video10.mp4,DISTRACTEURS-40/DIST.FIXES-20/10.NEUTRES /Dist.fix.neutre7.mp4,,,,,,,,,,,,538.4124,539.6666,-0.499800347,-0.312148437,1,0,0,1.2528,Faux,0,5,5,5,1,,
,,,,,P016,001,2025-06-10_15h56.33.107,Emotion.Memoire.2024,2024.1.5,MacIntel,57.14285714,,,,,,,,,,,,,,IMAGES_EXP_mp4_40/ANIMEES/10- ANIMEES --NEGATIVES /Video4.mp4,DISTRACTEURS-40/DIST.ANIMÉES-20/10.NÉGATIFS/Dist.animee.negatif4.mp4,,,,,,,,,,,,539.6684,540.679,-0.499713542,-0.317491319,1,0,0,1.0056,Faux,0,6,6,6,1,,
,,,,,P016,001,2025-06-10_15h56.33.107,Emotion.Memoire.2024,2024.1.5,MacIntel,57.14285714,,,,,,,,,,,,,,IMAGES_EXP_mp4_40/FIXES/FIX-NEUTRE-mp4/image10.mp4,IMAGES_EXP_mp4_40/FIXES/FIX-NEGATIF-mp4/Image2.mp4,,,,,,,,,,,,540.6807,542.3953,0.507864583,-0.319019097,1,0,0,1.7077,Vrai,0,7,7,7,1,,
,,,,,P016,001,2025-06-10_15h56.33.107,Emotion.Memoire.2024,2024.1.5,MacIntel,57.14285714,,,,,,,,,,,,,,IMAGES_EXP_mp4_40/ANIMEES/10- ANIMEES --NEGATIVES /Video1.mp4,IMAGES_EXP_mp4_40/FIXES/FIX-NEGATIF-mp4/Image9.mp4,,,,,,,,,,,,542.3959,543.0284,0.507864583,-0.319019097,1,0,0,0.6315,Vrai,0,8,8,8,1,,
,,,,,P016,001,2025-06-10_15h56.33.107,Emotion.Memoire.2024,2024.1.5,MacIntel,57.14285714,,,,,,,,,,,,,,IMAGES_EXP_mp4_40/FIXES/FIX-NEUTRE-mp4/image4.mp4,DISTRACTEURS-40/DIST.FIXES-20/10.NEUTRES /Dist.fix.neutre8.mp4,,,,,,,,,,,,543.0289,544.4668,-0.489787326,-0.27797309,1,0,0,1.4365,Faux,0,9,9,9,1,,
,,,,,P016,001,2025-06-10_15h56.33.107,Emotion.Memoire.2024,2024.1.5,MacIntel,57.14285714,,,,,,,,,,,,,,IMAGES_EXP_mp4_40/ANIMEES/11-ANIMEES --- NEUTRES /video6.mp4,DISTRACTEURS-40/DIST.ANIMÉES-20/10.NÉGATIFS/Dist.animee.negatif8.mp4,,,,,,,,,,,,544.4675,546.4786,-0.515460069,-0.282795139,1,0,0,2.0086,Faux,0,10,10,10,1,,
,,,,,P016,001,2025-06-10_15h56.33.107,Emotion.Memoire.2024,2024.1.5,MacIntel,57.14285714,,,,,,,,,,,,,,IMAGES_EXP_mp4_40/ANIMEES/11-ANIMEES --- NEUTRES /video9.mp4,IMAGES_EXP_mp4_40/ANIMEES/11-ANIMEES --- NEUTRES /video8.mp4,,,,,,,,,,,,546.4794,548.0788,0.480559896,-0.306996528,1,0,0,1.5964,Vrai,0,11,11,11,1,,
,,,,,P016,001,2025-06-10_15h56.33.107,Emotion.Memoire.2024,2024.1.5,MacIntel,57.14285714,,,,,,,,,,,,,,IMAGES_EXP_mp4_40/FIXES/FIX-NEUTRE-mp4/image8.mp4,IMAGES_EXP_mp4_40/ANIMEES/10- ANIMEES --NEGATIVES /Video8.mp4,,,,,,,,,,,,548.0793,548.8618,0.480559896,-0.306996528,1,0,0,0.7797,Vrai,0,12,12,12,1,,
,,,,,P016,001,2025-06-10_15h56.33.107,Emotion.Memoire.2024,2024.1.5,MacIntel,57.14285714,,,,,,,,,,,,,,IMAGES_EXP_mp4_40/ANIMEES/11-ANIMEES --- NEUTRES /video5.mp4,DISTRACTEURS-40/DIST.FIXES-20/10.NÉGATIFS/Dist.fix.negatif8.mp4,,,,,,,,,,,,548.8623,550.2453,-0.507213542,-0.298962674,1,0,0,1.3821,Faux,0,13,13,13,1,,
,,,,,P016,001,2025-06-10_15h56.33.107,Emotion.Memoire.2024,2024.1.5,MacIntel,57.14285714,,,,,,,,,,,,,,IMAGES_EXP_mp4_40/ANIMEES/11-ANIMEES --- NEUTRES /video1.mp4,DISTRACTEURS-40/DIST.FIXES-20/10.NEUTRES /Dist.fix.neutre2.mp4,,,,,,,,,,,,550.2458,550.9956,-0.507213542,-0.299101562,1,0,0,0.7485,Faux,0,14,14,14,1,,
,,,,,P016,001,2025-06-10_15h56.33.107,Emotion.Memoire.2024,2024.1.5,MacIntel,57.14285714,,,,,,,,,,,,,,IMAGES_EXP_mp4_40/ANIMEES/10- ANIMEES --NEGATIVES /Video9.mp4,DISTRACTEURS-40/DIST.ANIMÉES-20/10.NEUTRES/Dist.animee.neutre10.mp4,,,,,,,,,,,,550.9966,551.6119,-0.507213542,-0.299101562,1,0,0,0.6135,Faux,0,15,15,15,1,,
,,,,,P016,001,2025-06-10_15h56.33.107,Emotion.Memoire.2024,2024.1.5,MacIntel,57.14285714,,,,,,,,,,,,,,IMAGES_EXP_mp4_40/ANIMEES/10- ANIMEES --NEGATIVES /Video8.mp4,DISTRACTEURS-40/DIST.FIXES-20/10.NEUTRES /Dist.fix.neutre5.mp4,,,,,,,,,,,,551.6122,552.3782,-0.507213542,-0.299101562,1,0,0,0.7643,Faux,0,16,16,16,1,,
,,,,,P016,001,2025-06-10_15h56.33.107,Emotion.Memoire.2024,2024.1.5,MacIntel,57.14285714,,,,,,,,,,,,,,IMAGES_EXP_mp4_40/FIXES/FIX-NEGATIF-mp4/Image5.mp4,DISTRACTEURS-40/DIST.ANIMÉES-20/10.NEUTRES/Dist.animee.neutre1.mp4,,,,,,,,,,,,552.3798,553.162,-0.507213542,-0.299101562,1,0,0,0.7794,Faux,0,17,17,17,1,,
,,,,,P016,001,2025-06-10_15h56.33.107,Emotion.Memoire.2024,2024.1.5,MacIntel,57.14285714,,,,,,,,,,,,,,IMAGES_EXP_mp4_40/ANIMEES/11-ANIMEES --- NEUTRES /video2.mp4,IMAGES_EXP_mp4_40/FIXES/FIX-NEUTRE-mp4/image5.mp4,,,,,,,,,,,,553.1624,554.7454,0.530976563,-0.281679687,1,0,0,1.5818,Vrai,0,18,18,18,1,,
,,,,,P016,001,2025-06-10_15h56.33.107,Emotion.Memoire.2024,2024.1.5,MacIntel,57.14285714,,,,,,,,,,,,,,IMAGES_EXP_mp4_40/ANIMEES/10- ANIMEES --NEGATIVES /Video7.mp4,IMAGES_EXP_mp4_40/FIXES/FIX-NEUTRE-mp4/image7.mp4,,,,,,,,,,,,554.7461,555.4121,0.530976563,-0.281979167,1,0,0,0.6608,Vrai,0,19,19,19,1,,
,,,,,P016,001,2025-06-10_15h56.33.107,Emotion.Memoire.2024,2024.1.5,MacIntel,57.14285714,,,,,,,,,,,,,,IMAGES_EXP_mp4_40/FIXES/FIX-NEUTRE-mp4/image5.mp4,IMAGES_EXP_mp4_40/ANIMEES/10- ANIMEES --NEGATIVES /Video10.mp4,,,,,,,,,,,,555.4127,556.0787,0.530976563,-0.281979167,1,0,0,0.664,Vrai,0,20,20,20,1,,
,,,,,P016,001,2025-06-10_15h56.33.107,Emotion.Memoire.2024,2024.1.5,MacIntel,57.14285714,,,,,,,,,,,,,,IMAGES_EXP_mp4_40/ANIMEES/11-ANIMEES --- NEUTRES /video3.mp4,IMAGES_EXP_mp4_40/ANIMEES/10- ANIMEES --NEGATIVES /Video4.mp4,,,,,,,,,,,,556.0791,556.8622,0.530976563,-0.281979167,1,0,0,0.7815,Vrai,0,21,21,21,1,,
,,,,,P016,001,2025-06-10_15h56.33.107,Emotion.Memoire.2024,2024.1.5,MacIntel,57.14285714,,,,,,,,,,,,,,IMAGES_EXP_mp4_40/ANIMEES/10- ANIMEES --NEGATIVES /Video5.mp4,IMAGES_EXP_mp4_40/ANIMEES/10- ANIMEES --NEGATIVES /Video5.mp4,,,,,,,,,,,,556.8628,557.5287,0.530976563,-0.281979167,1,0,0,0.664,Vrai,0,22,22,22,1,,
,,,,,P016,001,2025-06-10_15h56.33.107,Emotion.Memoire.2024,2024.1.5,MacIntel,57.14285714,,,,,,,,,,,,,,IMAGES_EXP_mp4_40/ANIMEES/11-ANIMEES --- NEUTRES /video7.mp4,IMAGES_EXP_mp4_40/ANIMEES/11-ANIMEES --- NEUTRES /video6.mp4,,,,,,,,,,,,557.5295,558.262,0.530976563,-0.281979167,1,0,0,0.7317,Vrai,0,23,23,23,1,,
,,,,,P016,001,2025-06-10_15h56.33.107,Emotion.Memoire.2024,2024.1.5,MacIntel,57.14285714,,,,,,,,,,,,,,IMAGES_EXP_mp4_40/FIXES/FIX-NEGATIF-mp4/Image8.mp4,IMAGES_EXP_mp4_40/ANIMEES/11-ANIMEES --- NEUTRES /video5.mp4,,,,,,,,,,,,558.2626,559.1287,0.530976563,-0.281979167,1,0,0,0.8626,Vrai,0,24,24,24,1,,
,,,,,P016,001,2025-06-10_15h56.33.107,Emotion.Memoire.2024,2024.1.5,MacIntel,57.14285714,,,,,,,,,,,,,,IMAGES_EXP_mp4_40/FIXES/FIX-NEGATIF-mp4/Image2.mp4,DISTRACTEURS-40/DIST.ANIMÉES-20/10.NÉGATIFS/Dist.animee.negatif5.mp4,,,,,,,,,,,,559.1295,560.662,-0.479366319,-0.265625,1,0,0,1.531,Faux,0,25,25,25,1,,
,,,,,P016,001,2025-06-10_15h56.33.107,Emotion.Memoire.2024,2024.1.5,MacIntel,57.14285714,,,,,,,,,,,,,,IMAGES_EXP_mp4_40/FIXES/FIX-NEUTRE-mp4/image7.mp4,DISTRACTEURS-40/DIST.ANIMÉES-20/10.NEUTRES/Dist.animee.neutre4.mp4,,,,,,,,,,,,560.6623,561.3447,-0.479366319,-0.265763889,1,0,0,0.6818,Faux,0,26,26,26,1,,
,,,,,P016,001,2025-06-10_15h56.33.107,Emotion.Memoire.2024,2024.1.5,MacIntel,57.14285714,,,,,,,,,,,,,,IMAGES_EXP_mp4_40/ANIMEES/11-ANIMEES --- NEUTRES /video4.mp4,DISTRACTEURS-40/DIST.FIXES-20/10.NEUTRES /Dist.fix.neutre10.mp4,,,,,,,,,,,,561.345,562.3719,-0.479366319,-0.265763889,1,0,0,1.0259,Faux,0,27,27,27,1,,
,,,,,P016,001,2025-06-10_15h56.33.107,Emotion.Memoire.2024,2024.1.5,MacIntel,57.14285714,,,,,,,,,,,,,,IMAGES_EXP_mp4_40/FIXES/FIX-NEGATIF-mp4/Image1.mp4,IMAGES_EXP_mp4_40/FIXES/FIX-NEGATIF-mp4/Image3.mp4,,,,,,,,,,,,562.373,564.3456,0.504830729,-0.272178819,1,0,0,1.9706,Vrai,0,28,28,28,1,,
,,,,,P016,001,2025-06-10_15h56.33.107,Emotion.Memoire.2024,2024.1.5,MacIntel,57.14285714,,,,,,,,,,,,,,IMAGES_EXP_mp4_40/ANIMEES/10- ANIMEES --NEGATIVES /Video10.mp4,DISTRACTEURS-40/DIST.FIXES-20/10.NÉGATIFS/Dist.fix.negatif6.mp4,,,,,,,,,,,,564.3462,566.0456,-0.533715278,-0.292560764,1,0,0,1.6979,Faux,0,29,29,29,1,,
,,,,,P016,001,2025-06-10_15h56.33.107,Emotion.Memoire.2024,2024.1.5,MacIntel,57.14285714,,,,,,,,,,,,,,IMAGES_EXP_mp4_40/ANIMEES/11-ANIMEES --- NEUTRES /video8.mp4,IMAGES_EXP_mp4_40/ANIMEES/11-ANIMEES --- NEUTRES /video1.mp4,,,,,,,,,,,,566.0462,567.6955,0.494101562,-0.276927083,1,0,0,1.6482,Vrai,0,30,30,30,1,,
,,,,,P016,001,2025-06-10_15h56.33.107,Emotion.Memoire.2024,2024.1.5,MacIntel,57.14285714,,,,,,,,,,,,,,IMAGES_EXP_mp4_40/FIXES/FIX-NEUTRE-mp4/image6.mp4,IMAGES_EXP_mp4_40/FIXES/FIX-NEUTRE-mp4/image9.mp4,,,,,,,,,,,,567.6966,568.3121,0.494101562,-0.278528646,1,0,0,0.6138,Vrai,0,31,31,31,1,,
,,,,,P016,001,2025-06-10_15h56.33.107,Emotion.Memoire.2024,2024.1.5,MacIntel,57.14285714,,,,,,,,,,,,,,IMAGES_EXP_mp4_40/ANIMEES/10- ANIMEES --NEGATIVES /Video2.mp4,IMAGES_EXP_mp4_40/ANIMEES/10- ANIMEES --NEGATIVES /Video6.mp4,,,,,,,,,,,,568.3128,568.812,0.494101562,-0.28,1,0,0,0.498,Vrai,0,32,32,32,1,,
,,,,,P016,001,2025-06-10_15h56.33.107,Emotion.Memoire.2024,2024.1.5,MacIntel,57.14285714,,,,,,,,,,,,,,IMAGES_EXP_mp4_40/ANIMEES/10- ANIMEES --NEGATIVES /Video3.mp4,IMAGES_EXP_mp4_40/ANIMEES/11-ANIMEES --- NEUTRES /video3.mp4,,,,,,,,,,,,568.8123,570.4455,-0.498650174,-0.269809028,1,0,0,1.6323,Faux,0,33,33,33,1,,
,,,,,P016,001,2025-06-10_15h56.33.107,Emotion.Memoire.2024,2024.1.5,MacIntel,57.14285714,,,,,,,,,,,,,,IMAGES_EXP_mp4_40/FIXES/FIX-NEUTRE-mp4/image2.mp4,DISTRACTEURS-40/DIST.ANIMÉES-20/10.NÉGATIFS/Dist.animee.negatif7.mp4,,,,,,,,,,,,570.4462,571.2287,-0.498793403,-0.269809028,1,0,0,0.7808,Faux,0,34,34,34,1,,
,,,,,P016,001,2025-06-10_15h56.33.107,Emotion.Memoire.2024,2024.1.5,MacIntel,57.14285714,,,,,,,,,,,,,,IMAGES_EXP_mp4_40/FIXES/FIX-NEUTRE-mp4/image3.mp4,IMAGES_EXP_mp4_40/ANIMEES/11-ANIMEES --- NEUTRES /video9.mp4,,,,,,,,,,,,571.229,572.8791,0.495347222,-0.265598958,1,0,0,1.649,Vrai,0,35,35,35,1,,
,,,,,P016,001,2025-06-10_15h56.33.107,Emotion.Memoire.2024,2024.1.5,MacIntel,57.14285714,,,,,,,,,,,,,,IMAGES_EXP_mp4_40/FIXES/FIX-NEGATIF-mp4/Image9.mp4,DISTRACTEURS-40/DIST.ANIMÉES-20/10.NEUTRES/Dist.animee.neutre6.mp4,,,,,,,,,,,,572.8801,574.6966,-0.543454861,-0.305976562,1,0,0,1.8139,Faux,0,36,36,36,1,,
,,,,,P016,001,2025-06-10_15h56.33.107,Emotion.Memoire.2024,2024.1.5,MacIntel,57.14285714,,,,,,,,,,,,,,IMAGES_EXP_mp4_40/FIXES/FIX-NEGATIF-mp4/Image7.mp4,IMAGES_EXP_mp4_40/FIXES/FIX-NEGATIF-mp4/Image8.mp4,,,,,,,,,,,,574.7016,575.9791,0.469947917,-0.256966146,1,0,0,1.275,Vrai,0,37,37,37,1,,
,,,,,P016,001,2025-06-10_15h56.33.107,Emotion.Memoire.2024,2024.1.5,MacIntel,57.14285714,,,,,,,,,,,,,,IMAGES_EXP_mp4_40/ANIMEES/10- ANIMEES --NEGATIVES /Video6.mp4,IMAGES_EXP_mp4_40/FIXES/FIX-NEUTRE-mp4/image8.mp4,,,,,,,,,,,,575.98,576.4787,0.469947917,-0.256966146,1,0,0,0.4975,Vrai,0,38,38,38,1,,
,,,,,P016,001,2025-06-10_15h56.33.107,Emotion.Memoire.2024,2024.1.5,MacIntel,57.14285714,,,,,,,,,,,,,,IMAGES_EXP_mp4_40/FIXES/FIX-NEUTRE-mp4/image1.mp4,IMAGES_EXP_mp4_40/ANIMEES/11-ANIMEES --- NEUTRES /video7.mp4,,,,,,,,,,,,576.4792,576.9622,0.469947917,-0.257222222,1,0,0,0.4817,Vrai,0,39,39,39,1,,
,,,,,P016,001,2025-06-10_15h56.33.107,Emotion.Memoire.2024,2024.1.5,MacIntel,57.14285714,,,,,,,,,,,,,,IMAGES_EXP_mp4_40/ANIMEES/10- ANIMEES --NEGATIVES /Video1.mp4,DISTRACTEURS-40/DIST.ANIMÉES-20/10.NÉGATIFS/Dist.animee.negatif1.mp4,,,,,,,,,,,,576.9627,578.1955,-0.524162326,-0.301840278,1,0,0,1.2306,Faux,0,40,40,40,1,,
,,,,,P016,001,2025-06-10_15h56.33.107,Emotion.Memoire.2024,2024.1.5,MacIntel,57.14285714,,,,,,,,,,,,,,,DISTRACTEURS-40/DIST.FIXES-20/10.NEUTRES /Dist.fix.neutre9.mp4,,,,,,,,,,,,578.1958,578.8791,-0.524162326,-0.301840278,1,0,0,0.6824,Faux,0,41,41,41,1,,
,,,,,P016,001,2025-06-10_15h56.33.107,Emotion.Memoire.2024,2024.1.5,MacIntel,57.14285714,,,,,,,,,,,,,,,DISTRACTEURS-40/DIST.FIXES-20/10.NÉGATIFS/Dist.fix.negatif7.mp4,,,,,,,,,,,,578.8806,579.6623,-0.524162326,-0.301840278,1,0,0,0.7798,Faux,0,42,42,42,1,,
,,,,,P016,001,2025-06-10_15h56.33.107,Emotion.Memoire.2024,2024.1.5,MacIntel,57.14285714,,,,,,,,,,,,,,,DISTRACTEURS-40/DIST.ANIMÉES-20/10.NEUTRES/Dist.animee.neutre9.mp4,,,,,,,,,,,,579.6631,580.2788,-0.524162326,-0.301840278,1,0,0,0.6145,Faux,0,43,43,43,1,,
,,,,,P016,001,2025-06-10_15h56.33.107,Emotion.Memoire.2024,2024.1.5,MacIntel,57.14285714,,,,,,,,,,,,,,,DISTRACTEURS-40/DIST.FIXES-20/10.NÉGATIFS/Dist.fix.negatif1.mp4,,,,,,,,,,,,580.2792,580.8813,-0.524162326,-0.301840278,1,0,0,0.6013,Faux,0,44,44,44,1,,
,,,,,P016,001,2025-06-10_15h56.33.107,Emotion.Memoire.2024,2024.1.5,MacIntel,57.14285714,,,,,,,,,,,,,,,DISTRACTEURS-40/DIST.ANIMÉES-20/10.NÉGATIFS/Dist.animee.negatif6.mp4,,,,,,,,,,,,580.8816,581.6455,-0.524162326,-0.301840278,1,0,0,0.7634,Faux,0,45,45,45,1,,
,,,,,P016,001,2025-06-10_15h56.33.107,Emotion.Memoire.2024,2024.1.5,MacIntel,57.14285714,,,,,,,,,,,,,,,DISTRACTEURS-40/DIST.ANIMÉES-20/10.NÉGATIFS/Dist.animee.negatif2.mp4,,,,,,,,,,,,581.6458,582.6131,-0.524162326,-0.301840278,1,0,0,0.9623,Faux,0,46,46,46,1,,
,,,,,P016,001,2025-06-10_15h56.33.107,Emotion.Memoire.2024,2024.1.5,MacIntel,57.14285714,,,,,,,,,,,,,,,IMAGES_EXP_mp4_40/FIXES/FIX-NEGATIF-mp4/Image4.mp4,,,,,,,,,,,,582.6168,584.1116,0.465043403,-0.245147569,1,0,0,1.4918,Vrai,0,47,47,47,1,,
,,,,,P016,001,2025-06-10_15h56.33.107,Emotion.Memoire.2024,2024.1.5,MacIntel,57.14285714,,,,,,,,,,,,,,,IMAGES_EXP_mp4_40/ANIMEES/10- ANIMEES --NEGATIVES /Video7.mp4,,,,,,,,,,,,584.1121,585.4459,0.465043403,-0.245147569,1,0,0,1.3326,Vrai,0,48,48,48,1,,
,,,,,P016,001,2025-06-10_15h56.33.107,Emotion.Memoire.2024,2024.1.5,MacIntel,57.14285714,,,,,,,,,,,,,,,IMAGES_EXP_mp4_40/FIXES/FIX-NEUTRE-mp4/image4.mp4,,,,,,,,,,,,585.4466,586.0293,0.465043403,-0.245147569,1,0,0,0.5819,Vrai,0,49,49,49,1,,
,,,,,P016,001,2025-06-10_15h56.33.107,Emotion.Memoire.2024,2024.1.5,MacIntel,57.14285714,,,,,,,,,,,,,,,DISTRACTEURS-40/DIST.FIXES-20/10.NÉGATIFS/Dist.fix.negatif5.mp4,,,,,,,,,,,,586.03,587.7959,-0.507699653,-0.280828993,1,0,0,1.7634,Faux,0,50,50,50,1,,
,,,,,P016,001,2025-06-10_15h56.33.107,Emotion.Memoire.2024,2024.1.5,MacIntel,57.14285714,,,,,,,,,,,,,,,DISTRACTEURS-40/DIST.ANIMÉES-20/10.NÉGATIFS/Dist.animee.negatif9.mp4,,,,,,,,,,,,587.7975,588.3959,-0.507699653,-0.280828993,1,0,0,0.5964,Faux,0,51,51,51,1,,
,,,,,P016,001,2025-06-10_15h56.33.107,Emotion.Memoire.2024,2024.1.5,MacIntel,57.14285714,,,,,,,,,,,,,,,IMAGES_EXP_mp4_40/ANIMEES/11-ANIMEES --- NEUTRES /video2.mp4,,,,,,,,,,,,588.3966,589.9797,0.484544271,-0.290850694,1,0,0,1.5808,Vrai,0,52,52,52,1,,
,,,,,P016,001,2025-06-10_15h56.33.107,Emotion.Memoire.2024,2024.1.5,MacIntel,57.14285714,,,,,,,,,,,,,,,DISTRACTEURS-40/DIST.ANIMÉES-20/10.NEUTRES/Dist.animee.neutre5.mp4,,,,,,,,,,,,589.9802,590.6795,0.484544271,-0.290850694,1,0,0,0.6982,Vrai,0,53,53,53,1,,
,,,,,P016,001,2025-06-10_15h56.33.107,Emotion.Memoire.2024,2024.1.5,MacIntel,57.14285714,,,,,,,,,,,,,,,IMAGES_EXP_mp4_40/FIXES/FIX-NEGATIF-mp4/Image7.mp4,,,,,,,,,,,,590.6803,592.6711,0.542769097,-0.240399306,1,0,0,1.988,Vrai,0,54,54,54,1,,
,,,,,P016,001,2025-06-10_15h56.33.107,Emotion.Memoire.2024,2024.1.5,MacIntel,57.14285714,,,,,,,,,,,,,,,IMAGES_EXP_mp4_40/FIXES/FIX-NEGATIF-mp4/Image6.mp4,,,,,,,,,,,,592.672,593.3809,0.542769097,-0.240399306,1,0,0,0.707,Vrai,0,55,55,55,1,,
,,,,,P016,001,2025-06-10_15h56.33.107,Emotion.Memoire.2024,2024.1.5,MacIntel,57.14285714,,,,,,,,,,,,,,,IMAGES_EXP_mp4_40/FIXES/FIX-NEGATIF-mp4/Image5.mp4,,,,,,,,,,,,593.3818,593.9643,0.542769097,-0.240399306,1,0,0,0.5798,Vrai,0,56,56,56,1,,
,,,,,P016,001,2025-06-10_15h56.33.107,Emotion.Memoire.2024,2024.1.5,MacIntel,57.14285714,,,,,,,,,,,,,,,IMAGES_EXP_mp4_40/ANIMEES/11-ANIMEES --- NEUTRES /video10.mp4,,,,,,,,,,,,593.969,594.5792,0.542769097,-0.240399306,1,0,0,0.6071,Vrai,0,57,57,57,1,,
,,,,,P016,001,2025-06-10_15h56.33.107,Emotion.Memoire.2024,2024.1.5,MacIntel,57.14285714,,,,,,,,,,,,,,,DISTRACTEURS-40/DIST.FIXES-20/10.NEUTRES /Dist.fix.neutre4.mp4,,,,,,,,,,,,594.5797,596.0792,-0.565373264,-0.307434896,1,0,0,1.4983,Faux,0,58,58,58,1,,
,,,,,P016,001,2025-06-10_15h56.33.107,Emotion.Memoire.2024,2024.1.5,MacIntel,57.14285714,,,,,,,,,,,,,,,IMAGES_EXP_mp4_40/ANIMEES/11-ANIMEES --- NEUTRES /video4.mp4,,,,,,,,,,,,596.0797,597.713,0.492773438,-0.278194444,1,0,0,1.6315,Vrai,0,59,59,59,1,,
,,,,,P016,001,2025-06-10_15h56.33.107,Emotion.Memoire.2024,2024.1.5,MacIntel,57.14285714,,,,,,,,,,,,,,,DISTRACTEURS-40/DIST.FIXES-20/10.NEUTRES /Dist.fix.neutre6.mp4,,,,,,,,,,,,597.7134,599.3633,-0.499314236,-0.235616319,1,0,0,1.6483,Faux,0,60,60,60,1,,
,,,,,P016,001,2025-06-10_15h56.33.107,Emotion.Memoire.2024,2024.1.5,MacIntel,57.14285714,,,,,,,,,,,,,,,DISTRACTEURS-40/DIST.FIXES-20/10.NEUTRES /Dist.fix.neutre3.mp4,,,,,,,,,,,,599.3644,600.4482,-0.499314236,-0.235616319,1,0,0,1.0744,Faux,0,61,61,61,1,,
,,,,,P016,001,2025-06-10_15h56.33.107,Emotion.Memoire.2024,2024.1.5,MacIntel,57.14285714,,,,,,,,,,,,,,,DISTRACTEURS-40/DIST.FIXES-20/10.NÉGATIFS/Dist.fix.negatif10.mp4,,,,,,,,,,,,600.4756,602.146,-0.494244792,-0.286510417,1,0,0,1.6633,Faux,0,62,62,62,1,,
,,,,,P016,001,2025-06-10_15h56.33.107,Emotion.Memoire.2024,2024.1.5,MacIntel,57.14285714,,,,,,,,,,,,,,,IMAGES_EXP_mp4_40/ANIMEES/10- ANIMEES --NEGATIVES /Video1.mp4,,,,,,,,,,,,602.1465,603.8961,0.523255208,-0.25422309,1,0,0,1.747,Vrai,0,63,63,63,1,,
,,,,,P016,001,2025-06-10_15h56.33.107,Emotion.Memoire.2024,2024.1.5,MacIntel,57.14285714,,,,,,,,,,,,,,,DISTRACTEURS-40/DIST.FIXES-20/10.NÉGATIFS/Dist.fix.negatif9.mp4,,,,,,,,,,,,603.8969,607.1959,-0.510277778,-0.273815104,1,0,0,3.2981,Faux,0,64,64,64,1,,
,,,,,P016,001,2025-06-10_15h56.33.107,Emotion.Memoire.2024,2024.1.5,MacIntel,57.14285714,,,,,,,,,,,,,,,DISTRACTEURS-40/DIST.FIXES-20/10.NÉGATIFS/Dist.fix.negatif2.mp4,,,,,,,,,,,,607.1976,608.1921,-0.510138889,-0.273953993,1,0,0,0.9934,Faux,0,65,65,65,1,,
,,,,,P016,001,2025-06-10_15h56.33.107,Emotion.Memoire.2024,2024.1.5,MacIntel,57.14285714,,,,,,,,,,,,,,,IMAGES_EXP_mp4_40/FIXES/FIX-NEUTRE-mp4/image10.mp4,,,,,,,,,,,,608.1987,610.0469,0.493203125,-0.272092014,1,0,0,1.8444,Vrai,0,66,66,66,1,,
,,,,,P016,001,2025-06-10_15h56.33.107,Emotion.Memoire.2024,2024.1.5,MacIntel,57.14285714,,,,,,,,,,,,,,,IMAGES_EXP_mp4_40/FIXES/FIX-NEGATIF-mp4/Image1.mp4,,,,,,,,,,,,610.0476,610.8955,0.493203125,-0.272092014,1,0,0,0.845,Vrai,0,67,67,67,1,,
,,,,,P016,001,2025-06-10_15h56.33.107,Emotion.Memoire.2024,2024.1.5,MacIntel,57.14285714,,,,,,,,,,,,,,,IMAGES_EXP_mp4_40/ANIMEES/10- ANIMEES --NEGATIVES /Video3.mp4,,,,,,,,,,,,610.8959,611.963,0.493203125,-0.272092014,1,0,0,1.0654,Vrai,0,68,68,68,1,,
,,,,,P016,001,2025-06-10_15h56.33.107,Emotion.Memoire.2024,2024.1.5,MacIntel,57.14285714,,,,,,,,,,,,,,,DISTRACTEURS-40/DIST.FIXES-20/10.NEUTRES /Dist.fix.neutre1.mp4,,,,,,,,,,,,611.9638,613.3628,-0.51890191,-0.299605035,1,0,0,1.3967,Faux,0,69,69,69,1,,
,,,,,P016,001,2025-06-10_15h56.33.107,Emotion.Memoire.2024,2024.1.5,MacIntel,57.14285714,,,,,,,,,,,,,,,DISTRACTEURS-40/DIST.FIXES-20/10.NÉGATIFS/Dist.fix.negatif3.mp4,,,,,,,,,,,,613.3635,614.0961,-0.51890191,-0.299743924,1,0,0,0.7309,Faux,0,70,70,70,1,,
,,,,,P016,001,2025-06-10_15h56.33.107,Emotion.Memoire.2024,2024.1.5,MacIntel,57.14285714,,,,,,,,,,,,,,,IMAGES_EXP_mp4_40/FIXES/FIX-NEUTRE-mp4/image3.mp4,,,,,,,,,,,,614.0966,615.4459,-0.51890191,-0.299743924,1,0,0,1.3457,Faux,0,71,71,71,1,,
,,,,,P016,001,2025-06-10_15h56.33.107,Emotion.Memoire.2024,2024.1.5,MacIntel,57.14285714,,,,,,,,,,,,,,,IMAGES_EXP_mp4_40/FIXES/FIX-NEGATIF-mp4/Image10.mp4,,,,,,,,,,,,615.4469,616.9628,0.509019097,-0.266614583,1,0,0,1.5137,Vrai,0,72,72,72,1,,
,,,,,P016,001,2025-06-10_15h56.33.107,Emotion.Memoire.2024,2024.1.5,MacIntel,57.14285714,,,,,,,,,,,,,,,IMAGES_EXP_mp4_40/FIXES/FIX-NEUTRE-mp4/image1.mp4,,,,,,,,,,,,616.9634,617.7631,0.509019097,-0.266753472,1,0,0,0.7981,Vrai,0,73,73,73,1,,
,,,,,P016,001,2025-06-10_15h56.33.107,Emotion.Memoire.2024,2024.1.5,MacIntel,57.14285714,,,,,,,,,,,,,,,DISTRACTEURS-40/DIST.ANIMÉES-20/10.NEUTRES/Dist.animee.neutre8.mp4,,,,,,,,,,,,617.7636,619.3463,-0.497547743,-0.256948785,1,0,0,1.5816,Faux,0,74,74,74,1,,
,,,,,P016,001,2025-06-10_15h56.33.107,Emotion.Memoire.2024,2024.1.5,MacIntel,57.14285714,,,,,,,,,,,,,,,DISTRACTEURS-40/DIST.FIXES-20/10.NÉGATIFS/Dist.fix.negatif4.mp4,,,,,,,,,,,,619.3473,620.3468,-0.497547743,-0.257087674,1,0,0,0.9986,Faux,0,75,75,75,1,,
,,,,,P016,001,2025-06-10_15h56.33.107,Emotion.Memoire.2024,2024.1.5,MacIntel,57.14285714,,,,,,,,,,,,,,,DISTRACTEURS-40/DIST.ANIMÉES-20/10.NÉGATIFS/Dist.animee.negatif3.mp4,,,,,,,,,,,,620.3492,623.5634,-0.497547743,-0.257087674,1,0,0,3.2124,Faux,0,76,76,76,1,,
,,,,,P016,001,2025-06-10_15h56.33.107,Emotion.Memoire.2024,2024.1.5,MacIntel,57.14285714,,,,,,,,,,,,,,,DISTRACTEURS-40/DIST.ANIMÉES-20/10.NEUTRES/Dist.animee.neutre2.mp4,,,,,,,,,,,,623.5658,624.5628,-0.497547743,-0.257087674,1,0,0,0.9959,Faux,0,77,77,77,1,,
,,,,,P016,001,2025-06-10_15h56.33.107,Emotion.Memoire.2024,2024.1.5,MacIntel,57.14285714,,,,,,,,,,,,,,,IMAGES_EXP_mp4_40/ANIMEES/10- ANIMEES --NEGATIVES /Video9.mp4,,,,,,,,,,,,624.5632,626.1964,0.489184028,-0.286757812,1,0,0,1.6313,Vrai,0,78,78,78,1,,
,,,,,P016,001,2025-06-10_15h56.33.107,Emotion.Memoire.2024,2024.1.5,MacIntel,57.14285714,,,,,,,,,,,,,,,DISTRACTEURS-40/DIST.ANIMÉES-20/10.NEUTRES/Dist.animee.neutre7.mp4,,,,,,,,,,,,626.1975,627.063,0.489322917,-0.286896701,1,0,0,0.8643,Vrai,0,79,79,79,1,,
,,,,,P016,001,2025-06-10_15h56.33.107,Emotion.Memoire.2024,2024.1.5,MacIntel,57.14285714,,,,,,,,,,,,,,,,,,,,,,,,,,,,,,,,,,,,,,,,,627.0813,642.0642
