Consigne.started,Consigne.stopped,Key_resp1.keys,Key_resp1.rt,Key_resp1.duration,participant,session,date,expName,psychopyVersion,OS,frameRate,IMAGES.started,IMAGES.stopped,SAM.started,SAM.stopped,Plaisir.response,Plaisir.rt,EVEIL.response,EVEIL.rt,trials.thisRepN,trials.thisTrialN,trials.thisN,trials.thisIndex,trials.ran,ImageFile,ImagesDistracteursFile,Test,Calcul.started,Calcul.stopped,Key_response.keys,Key_response.rt,Key_response.duration,Consigne_reco.started,Consigne_reco.stopped,key_resp_reconn.keys,key_resp_reconn.rt,key_resp_reconn.duration,DISTRACTEURS.started,DISTRACTEURS.stopped,mouse.x,mouse.y,mouse.leftButton,mouse.midButton,mouse.rightButton,mouse.time,mouse.clicked_name,trials_2.thisRepN,trials_2.thisTrialN,trials_2.thisN,trials_2.thisIndex,trials_2.ran,MERCI.started,MERCI.stopped
0.0003,25.2091,space,24.9931,,P019,001,2025-01-24_10h21.30.652,Emotion.Memoire.2024,2024.1.5,Win32,59.88023952,,,,,,,,,,,,,,,,,,,,,,,,,,,,,,,,,,,,,,,,,,
,,,,,P019,001,2025-01-24_10h21.30.652,Emotion.Memoire.2024,2024.1.5,Win32,59.88023952,25.2183,35.2095,35.2218,50.069,2,5.4,4,14.8378,0,0,0,0,1,IMAGES_EXP_mp4_40/FIXES/FIX-NEGATIF-mp4/Image6.mp4,DISTRACTEURS-40/DIST.ANIMÉES-20/10.NÉGATIFS/Dist.animee.negatif10.mp4,IMAGES_EXP_mp4_40/ANIMEES/10- ANIMEES --NEGATIVES /Video1.mp4,,,,,,,,,,,,,,,,,,,,,,,,,,
,,,,,P019,001,2025-01-24_10h21.30.652,Emotion.Memoire.2024,2024.1.5,Win32,59.88023952,50.0694,60.0593,60.0597,67.6657,5,4.5143,1,7.6022,0,1,1,1,1,IMAGES_EXP_mp4_40/FIXES/FIX-NEUTRE-mp4/image9.mp4,DISTRACTEURS-40/DIST.ANIMÉES-20/10.NEUTRES/Dist.animee.neutre3.mp4,DISTRACTEURS-40/DIST.FIXES-20/10.NÉGATIFS/Dist.fix.negatif3.mp4,,,,,,,,,,,,,,,,,,,,,,,,,,
,,,,,P019,001,2025-01-24_10h21.30.652,Emotion.Memoire.2024,2024.1.5,Win32,59.88023952,67.6661,77.6564,77.6569,86.2636,1,2.825,7,8.5979,0,2,2,2,1,IMAGES_EXP_mp4_40/FIXES/FIX-NEGATIF-mp4/Image3.mp4,IMAGES_EXP_mp4_40/ANIMEES/10- ANIMEES --NEGATIVES /Video2.mp4,DISTRACTEURS-40/DIST.FIXES-20/10.NÉGATIFS/Dist.fix.negatif5.mp4,,,,,,,,,,,,,,,,,,,,,,,,,,
,,,,,P019,001,2025-01-24_10h21.30.652,Emotion.Memoire.2024,2024.1.5,Win32,59.88023952,86.2642,96.2544,96.255,108.2141,2,5.5828,6,11.9508,0,3,3,3,1,IMAGES_EXP_mp4_40/FIXES/FIX-NEGATIF-mp4/Image4.mp4,IMAGES_EXP_mp4_40/FIXES/FIX-NEUTRE-mp4/image6.mp4,,,,,,,,,,,,,,,,,,,,,,,,,,,
,,,,,P019,001,2025-01-24_10h21.30.652,Emotion.Memoire.2024,2024.1.5,Win32,59.88023952,108.2144,118.2049,118.2054,126.1779,3,3.2483,7,7.9681,0,4,4,4,1,IMAGES_EXP_mp4_40/FIXES/FIX-NEGATIF-mp4/Image10.mp4,IMAGES_EXP_mp4_40/FIXES/FIX-NEUTRE-mp4/image2.mp4,,,,,,,,,,,,,,,,,,,,,,,,,,,
,,,,,P019,001,2025-01-24_10h21.30.652,Emotion.Memoire.2024,2024.1.5,Win32,59.88023952,126.1783,136.1689,136.1693,142.1906,7,3.5009,1,6.0206,0,5,5,5,1,IMAGES_EXP_mp4_40/ANIMEES/11-ANIMEES --- NEUTRES /video10.mp4,DISTRACTEURS-40/DIST.FIXES-20/10.NEUTRES /Dist.fix.neutre7.mp4,,,,,,,,,,,,,,,,,,,,,,,,,,,
,,,,,P019,001,2025-01-24_10h21.30.652,Emotion.Memoire.2024,2024.1.5,Win32,59.88023952,142.1908,152.1814,152.1818,163.5071,1,2.6481,6,11.3198,0,6,6,6,1,IMAGES_EXP_mp4_40/ANIMEES/10- ANIMEES --NEGATIVES /Video4.mp4,DISTRACTEURS-40/DIST.ANIMÉES-20/10.NÉGATIFS/Dist.animee.negatif4.mp4,,,,,,,,,,,,,,,,,,,,,,,,,,,
,,,,,P019,001,2025-01-24_10h21.30.652,Emotion.Memoire.2024,2024.1.5,Win32,59.88023952,163.5075,173.4982,173.4986,181.2541,7,5.1103,1,7.7467,0,7,7,7,1,IMAGES_EXP_mp4_40/FIXES/FIX-NEUTRE-mp4/image10.mp4,IMAGES_EXP_mp4_40/FIXES/FIX-NEGATIF-mp4/Image2.mp4,,,,,,,,,,,,,,,,,,,,,,,,,,,
,,,,,P019,001,2025-01-24_10h21.30.652,Emotion.Memoire.2024,2024.1.5,Win32,59.88023952,181.2545,191.2486,191.2489,198.3344,1,3.4721,5,7.0764,0,8,8,8,1,IMAGES_EXP_mp4_40/ANIMEES/10- ANIMEES --NEGATIVES /Video1.mp4,IMAGES_EXP_mp4_40/FIXES/FIX-NEGATIF-mp4/Image9.mp4,,,,,,,,,,,,,,,,,,,,,,,,,,,
,,,,,P019,001,2025-01-24_10h21.30.652,Emotion.Memoire.2024,2024.1.5,Win32,59.88023952,198.3348,208.3253,208.3258,216.7487,7,5.3279,3,8.4129,0,9,9,9,1,IMAGES_EXP_mp4_40/FIXES/FIX-NEUTRE-mp4/image4.mp4,DISTRACTEURS-40/DIST.FIXES-20/10.NEUTRES /Dist.fix.neutre8.mp4,,,,,,,,,,,,,,,,,,,,,,,,,,,
,,,,,P019,001,2025-01-24_10h21.30.652,Emotion.Memoire.2024,2024.1.5,Win32,59.88023952,216.7491,226.7397,226.7405,236.4143,6,4.0012,2,9.6653,0,10,10,10,1,IMAGES_EXP_mp4_40/ANIMEES/11-ANIMEES --- NEUTRES /video6.mp4,DISTRACTEURS-40/DIST.ANIMÉES-20/10.NÉGATIFS/Dist.animee.negatif8.mp4,,,,,,,,,,,,,,,,,,,,,,,,,,,
,,,,,P019,001,2025-01-24_10h21.30.652,Emotion.Memoire.2024,2024.1.5,Win32,59.88023952,236.4147,246.417,246.4179,251.9664,6,2.9278,4,5.5475,0,11,11,11,1,IMAGES_EXP_mp4_40/ANIMEES/11-ANIMEES --- NEUTRES /video9.mp4,IMAGES_EXP_mp4_40/ANIMEES/11-ANIMEES --- NEUTRES /video8.mp4,,,,,,,,,,,,,,,,,,,,,,,,,,,
,,,,,P019,001,2025-01-24_10h21.30.652,Emotion.Memoire.2024,2024.1.5,Win32,59.88023952,251.9666,261.9567,261.957,269.8804,1,3.0845,1,7.9225,0,12,12,12,1,IMAGES_EXP_mp4_40/FIXES/FIX-NEUTRE-mp4/image8.mp4,IMAGES_EXP_mp4_40/ANIMEES/10- ANIMEES --NEGATIVES /Video8.mp4,,,,,,,,,,,,,,,,,,,,,,,,,,,
,,,,,P019,001,2025-01-24_10h21.30.652,Emotion.Memoire.2024,2024.1.5,Win32,59.88023952,269.8807,279.8884,279.8886,291.2821,9,4.7092,4,11.3924,0,13,13,13,1,IMAGES_EXP_mp4_40/ANIMEES/11-ANIMEES --- NEUTRES /video5.mp4,DISTRACTEURS-40/DIST.FIXES-20/10.NÉGATIFS/Dist.fix.negatif8.mp4,,,,,,,,,,,,,,,,,,,,,,,,,,,
,,,,,P019,001,2025-01-24_10h21.30.652,Emotion.Memoire.2024,2024.1.5,Win32,59.88023952,291.2823,301.2881,301.2883,306.1597,7,3.185,1,4.8705,0,14,14,14,1,IMAGES_EXP_mp4_40/ANIMEES/11-ANIMEES --- NEUTRES /video1.mp4,DISTRACTEURS-40/DIST.FIXES-20/10.NEUTRES /Dist.fix.neutre2.mp4,,,,,,,,,,,,,,,,,,,,,,,,,,,
,,,,,P019,001,2025-01-24_10h21.30.652,Emotion.Memoire.2024,2024.1.5,Win32,59.88023952,306.1599,315.509,315.5091,334.9578,2,8.1448,7,19.4433,0,15,15,15,1,IMAGES_EXP_mp4_40/ANIMEES/10- ANIMEES --NEGATIVES /Video9.mp4,DISTRACTEURS-40/DIST.ANIMÉES-20/10.NEUTRES/Dist.animee.neutre10.mp4,,,,,,,,,,,,,,,,,,,,,,,,,,,
,,,,,P019,001,2025-01-24_10h21.30.652,Emotion.Memoire.2024,2024.1.5,Win32,59.88023952,334.9583,343.8537,343.8539,357.5662,1,3.6355,8,13.7116,0,16,16,16,1,IMAGES_EXP_mp4_40/ANIMEES/10- ANIMEES --NEGATIVES /Video8.mp4,DISTRACTEURS-40/DIST.FIXES-20/10.NEUTRES /Dist.fix.neutre5.mp4,,,,,,,,,,,,,,,,,,,,,,,,,,,
,,,,,P019,001,2025-01-24_10h21.30.652,Emotion.Memoire.2024,2024.1.5,Win32,59.88023952,357.5664,367.557,367.5573,375.4395,3,3.9013,5,7.8801,0,17,17,17,1,IMAGES_EXP_mp4_40/FIXES/FIX-NEGATIF-mp4/Image5.mp4,DISTRACTEURS-40/DIST.ANIMÉES-20/10.NEUTRES/Dist.animee.neutre1.mp4,,,,,,,,,,,,,,,,,,,,,,,,,,,
,,,,,P019,001,2025-01-24_10h21.30.652,Emotion.Memoire.2024,2024.1.5,Win32,59.88023952,375.44,385.4373,385.4376,391.6262,7,3.5764,1,6.1878,0,18,18,18,1,IMAGES_EXP_mp4_40/ANIMEES/11-ANIMEES --- NEUTRES /video2.mp4,IMAGES_EXP_mp4_40/FIXES/FIX-NEUTRE-mp4/image5.mp4,,,,,,,,,,,,,,,,,,,,,,,,,,,
,,,,,P019,001,2025-01-24_10h21.30.652,Emotion.Memoire.2024,2024.1.5,Win32,59.88023952,391.6264,401.6185,401.6188,407.7227,1,3.0992,7,6.103,0,19,19,19,1,IMAGES_EXP_mp4_40/ANIMEES/10- ANIMEES --NEGATIVES /Video7.mp4,IMAGES_EXP_mp4_40/FIXES/FIX-NEUTRE-mp4/image7.mp4,,,,,,,,,,,,,,,,,,,,,,,,,,,
,,,,,P019,001,2025-01-24_10h21.30.652,Emotion.Memoire.2024,2024.1.5,Win32,59.88023952,407.7229,417.7153,417.7156,426.9716,8,4.1325,1,9.2551,0,20,20,20,1,IMAGES_EXP_mp4_40/FIXES/FIX-NEUTRE-mp4/image5.mp4,IMAGES_EXP_mp4_40/ANIMEES/10- ANIMEES --NEGATIVES /Video10.mp4,,,,,,,,,,,,,,,,,,,,,,,,,,,
,,,,,P019,001,2025-01-24_10h21.30.652,Emotion.Memoire.2024,2024.1.5,Win32,59.88023952,426.9719,436.9624,436.9626,442.3748,5,4.5011,5,5.411,0,21,21,21,1,IMAGES_EXP_mp4_40/ANIMEES/11-ANIMEES --- NEUTRES /video3.mp4,IMAGES_EXP_mp4_40/ANIMEES/10- ANIMEES --NEGATIVES /Video4.mp4,,,,,,,,,,,,,,,,,,,,,,,,,,,
,,,,,P019,001,2025-01-24_10h21.30.652,Emotion.Memoire.2024,2024.1.5,Win32,59.88023952,442.3751,452.3726,452.373,458.44,1,2.5344,6,6.0664,0,22,22,22,1,IMAGES_EXP_mp4_40/ANIMEES/10- ANIMEES --NEGATIVES /Video5.mp4,IMAGES_EXP_mp4_40/ANIMEES/10- ANIMEES --NEGATIVES /Video5.mp4,,,,,,,,,,,,,,,,,,,,,,,,,,,
,,,,,P019,001,2025-01-24_10h21.30.652,Emotion.Memoire.2024,2024.1.5,Win32,59.88023952,458.4402,468.4372,468.4377,478.244,5,6.2186,6,9.8054,0,23,23,23,1,IMAGES_EXP_mp4_40/ANIMEES/11-ANIMEES --- NEUTRES /video7.mp4,IMAGES_EXP_mp4_40/ANIMEES/11-ANIMEES --- NEUTRES /video6.mp4,,,,,,,,,,,,,,,,,,,,,,,,,,,
,,,,,P019,001,2025-01-24_10h21.30.652,Emotion.Memoire.2024,2024.1.5,Win32,59.88023952,478.2443,488.2338,488.234,493.7729,4,3.3076,7,5.5379,0,24,24,24,1,IMAGES_EXP_mp4_40/FIXES/FIX-NEGATIF-mp4/Image8.mp4,IMAGES_EXP_mp4_40/ANIMEES/11-ANIMEES --- NEUTRES /video5.mp4,,,,,,,,,,,,,,,,,,,,,,,,,,,
,,,,,P019,001,2025-01-24_10h21.30.652,Emotion.Memoire.2024,2024.1.5,Win32,59.88023952,493.7731,503.765,503.7653,516.9414,1,4.6837,8,13.1752,0,25,25,25,1,IMAGES_EXP_mp4_40/FIXES/FIX-NEGATIF-mp4/Image2.mp4,DISTRACTEURS-40/DIST.ANIMÉES-20/10.NÉGATIFS/Dist.animee.negatif5.mp4,,,,,,,,,,,,,,,,,,,,,,,,,,,
,,,,,P019,001,2025-01-24_10h21.30.652,Emotion.Memoire.2024,2024.1.5,Win32,59.88023952,516.9418,526.9312,526.9313,539.0089,5,3.7024,3,12.0767,0,26,26,26,1,IMAGES_EXP_mp4_40/FIXES/FIX-NEUTRE-mp4/image7.mp4,DISTRACTEURS-40/DIST.ANIMÉES-20/10.NEUTRES/Dist.animee.neutre4.mp4,,,,,,,,,,,,,,,,,,,,,,,,,,,
,,,,,P019,001,2025-01-24_10h21.30.652,Emotion.Memoire.2024,2024.1.5,Win32,59.88023952,539.0091,548.9981,548.9984,563.503,9,11.5253,1,14.5032,0,27,27,27,1,IMAGES_EXP_mp4_40/ANIMEES/11-ANIMEES --- NEUTRES /video4.mp4,DISTRACTEURS-40/DIST.FIXES-20/10.NEUTRES /Dist.fix.neutre10.mp4,,,,,,,,,,,,,,,,,,,,,,,,,,,
,,,,,P019,001,2025-01-24_10h21.30.652,Emotion.Memoire.2024,2024.1.5,Win32,59.88023952,563.5033,573.5029,573.5032,580.2581,5,4.0884,5,6.7266,0,28,28,28,1,IMAGES_EXP_mp4_40/FIXES/FIX-NEGATIF-mp4/Image1.mp4,IMAGES_EXP_mp4_40/FIXES/FIX-NEGATIF-mp4/Image3.mp4,,,,,,,,,,,,,,,,,,,,,,,,,,,
,,,,,P019,001,2025-01-24_10h21.30.652,Emotion.Memoire.2024,2024.1.5,Win32,59.88023952,580.2583,590.2573,590.2577,595.695,1,3.0923,8,5.4283,0,29,29,29,1,IMAGES_EXP_mp4_40/ANIMEES/10- ANIMEES --NEGATIVES /Video10.mp4,DISTRACTEURS-40/DIST.FIXES-20/10.NÉGATIFS/Dist.fix.negatif6.mp4,,,,,,,,,,,,,,,,,,,,,,,,,,,
,,,,,P019,001,2025-01-24_10h21.30.652,Emotion.Memoire.2024,2024.1.5,Win32,59.88023952,595.6954,605.6861,605.6864,611.8911,6,3.3834,6,6.1992,0,30,30,30,1,IMAGES_EXP_mp4_40/ANIMEES/11-ANIMEES --- NEUTRES /video8.mp4,IMAGES_EXP_mp4_40/ANIMEES/11-ANIMEES --- NEUTRES /video1.mp4,,,,,,,,,,,,,,,,,,,,,,,,,,,
,,,,,P019,001,2025-01-24_10h21.30.652,Emotion.Memoire.2024,2024.1.5,Win32,59.88023952,611.8915,621.882,621.8824,626.1351,7,2.5157,2,4.2442,0,31,31,31,1,IMAGES_EXP_mp4_40/FIXES/FIX-NEUTRE-mp4/image6.mp4,IMAGES_EXP_mp4_40/FIXES/FIX-NEUTRE-mp4/image9.mp4,,,,,,,,,,,,,,,,,,,,,,,,,,,
,,,,,P019,001,2025-01-24_10h21.30.652,Emotion.Memoire.2024,2024.1.5,Win32,59.88023952,626.1354,636.1265,636.1268,642.7152,4,2.909,6,6.5798,0,32,32,32,1,IMAGES_EXP_mp4_40/ANIMEES/10- ANIMEES --NEGATIVES /Video2.mp4,IMAGES_EXP_mp4_40/ANIMEES/10- ANIMEES --NEGATIVES /Video6.mp4,,,,,,,,,,,,,,,,,,,,,,,,,,,
,,,,,P019,001,2025-01-24_10h21.30.652,Emotion.Memoire.2024,2024.1.5,Win32,59.88023952,642.7155,652.7203,652.7206,657.8842,1,2.6096,4,5.1627,0,33,33,33,1,IMAGES_EXP_mp4_40/ANIMEES/10- ANIMEES --NEGATIVES /Video3.mp4,IMAGES_EXP_mp4_40/ANIMEES/11-ANIMEES --- NEUTRES /video3.mp4,,,,,,,,,,,,,,,,,,,,,,,,,,,
,,,,,P019,001,2025-01-24_10h21.30.652,Emotion.Memoire.2024,2024.1.5,Win32,59.88023952,657.8845,667.8746,667.8749,673.7962,9,3.4008,1,5.9203,0,34,34,34,1,IMAGES_EXP_mp4_40/FIXES/FIX-NEUTRE-mp4/image2.mp4,DISTRACTEURS-40/DIST.ANIMÉES-20/10.NÉGATIFS/Dist.animee.negatif7.mp4,,,,,,,,,,,,,,,,,,,,,,,,,,,
,,,,,P019,001,2025-01-24_10h21.30.652,Emotion.Memoire.2024,2024.1.5,Win32,59.88023952,673.7965,683.8031,683.8033,687.7362,9,1.65,1,3.932,0,35,35,35,1,IMAGES_EXP_mp4_40/FIXES/FIX-NEUTRE-mp4/image3.mp4,IMAGES_EXP_mp4_40/ANIMEES/11-ANIMEES --- NEUTRES /video9.mp4,,,,,,,,,,,,,,,,,,,,,,,,,,,
,,,,,P019,001,2025-01-24_10h21.30.652,Emotion.Memoire.2024,2024.1.5,Win32,59.88023952,687.7364,697.7005,697.7008,702.8361,1,2.4311,6,5.1342,0,36,36,36,1,IMAGES_EXP_mp4_40/FIXES/FIX-NEGATIF-mp4/Image9.mp4,DISTRACTEURS-40/DIST.ANIMÉES-20/10.NEUTRES/Dist.animee.neutre6.mp4,,,,,,,,,,,,,,,,,,,,,,,,,,,
,,,,,P019,001,2025-01-24_10h21.30.652,Emotion.Memoire.2024,2024.1.5,Win32,59.88023952,702.8364,712.8168,712.8179,718.7911,1,3.4513,5,5.9631,0,37,37,37,1,IMAGES_EXP_mp4_40/FIXES/FIX-NEGATIF-mp4/Image7.mp4,IMAGES_EXP_mp4_40/FIXES/FIX-NEGATIF-mp4/Image8.mp4,,,,,,,,,,,,,,,,,,,,,,,,,,,
,,,,,P019,001,2025-01-24_10h21.30.652,Emotion.Memoire.2024,2024.1.5,Win32,59.88023952,718.7914,728.7821,728.7823,739.6909,1,7.2298,8,10.9001,0,38,38,38,1,IMAGES_EXP_mp4_40/ANIMEES/10- ANIMEES --NEGATIVES /Video6.mp4,IMAGES_EXP_mp4_40/FIXES/FIX-NEUTRE-mp4/image8.mp4,,,,,,,,,,,,,,,,,,,,,,,,,,,
,,,,,P019,001,2025-01-24_10h21.30.652,Emotion.Memoire.2024,2024.1.5,Win32,59.88023952,739.6914,749.6818,749.6822,783.9421,5,13.8513,5,34.2509,0,39,39,39,1,IMAGES_EXP_mp4_40/FIXES/FIX-NEUTRE-mp4/image1.mp4,IMAGES_EXP_mp4_40/ANIMEES/11-ANIMEES --- NEUTRES /video7.mp4,,,,,,,,,,,,,,,,,,,,,,,,,,,
,,,,,P019,001,2025-01-24_10h21.30.652,Emotion.Memoire.2024,2024.1.5,Win32,59.88023952,,,,,,,,,,,,,,,,,783.9427,1225.0446,space,441.0477,,,,,,,,,,,,,,,,,,,,,,
,,,,,P019,001,2025-01-24_10h21.30.652,Emotion.Memoire.2024,2024.1.5,Win32,59.88023952,,,,,,,,,,,,,,,,,,,,,,1225.0447,1253.2758,space,28.0736,,,,,,,,,,,,,,,,,
,,,,,P019,001,2025-01-24_10h21.30.652,Emotion.Memoire.2024,2024.1.5,Win32,59.88023952,,,,,,,,,,,,,,IMAGES_EXP_mp4_40/FIXES/FIX-NEGATIF-mp4/Image6.mp4,DISTRACTEURS-40/DIST.ANIMÉES-20/10.NÉGATIFS/Dist.animee.negatif10.mp4,IMAGES_EXP_mp4_40/ANIMEES/10- ANIMEES --NEGATIVES /Video1.mp4,,,,,,,,,,,1253.3311,1258.8806,-0.491666667,-0.294166667,1,0,0,5.52,Faux,0,0,0,0,1,,
,,,,,P019,001,2025-01-24_10h21.30.652,Emotion.Memoire.2024,2024.1.5,Win32,59.88023952,,,,,,,,,,,,,,IMAGES_EXP_mp4_40/FIXES/FIX-NEUTRE-mp4/image9.mp4,DISTRACTEURS-40/DIST.ANIMÉES-20/10.NEUTRES/Dist.animee.neutre3.mp4,DISTRACTEURS-40/DIST.FIXES-20/10.NÉGATIFS/Dist.fix.negatif3.mp4,,,,,,,,,,,1258.9026,1266.8755,-0.485833333,-0.281666667,1,0,0,7.9505,Faux,0,1,1,1,1,,
,,,,,P019,001,2025-01-24_10h21.30.652,Emotion.Memoire.2024,2024.1.5,Win32,59.88023952,,,,,,,,,,,,,,IMAGES_EXP_mp4_40/FIXES/FIX-NEGATIF-mp4/Image3.mp4,IMAGES_EXP_mp4_40/ANIMEES/10- ANIMEES --NEGATIVES /Video2.mp4,DISTRACTEURS-40/DIST.FIXES-20/10.NÉGATIFS/Dist.fix.negatif5.mp4,,,,,,,,,,,1266.8777,1275.3975,0.525833333,-0.310833333,1,0,0,8.5177,Vrai,0,2,2,2,1,,
,,,,,P019,001,2025-01-24_10h21.30.652,Emotion.Memoire.2024,2024.1.5,Win32,59.88023952,,,,,,,,,,,,,,IMAGES_EXP_mp4_40/FIXES/FIX-NEGATIF-mp4/Image4.mp4,IMAGES_EXP_mp4_40/FIXES/FIX-NEUTRE-mp4/image6.mp4,,,,,,,,,,,,1275.398,1277.3008,0.540833333,-0.285,1,0,0,1.9024,Vrai,0,3,3,3,1,,
,,,,,P019,001,2025-01-24_10h21.30.652,Emotion.Memoire.2024,2024.1.5,Win32,59.88023952,,,,,,,,,,,,,,IMAGES_EXP_mp4_40/FIXES/FIX-NEGATIF-mp4/Image10.mp4,IMAGES_EXP_mp4_40/FIXES/FIX-NEUTRE-mp4/image2.mp4,,,,,,,,,,,,1277.3014,1279.1728,0.525,-0.285833333,1,0,0,1.8708,Vrai,0,4,4,4,1,,
,,,,,P019,001,2025-01-24_10h21.30.652,Emotion.Memoire.2024,2024.1.5,Win32,59.88023952,,,,,,,,,,,,,,IMAGES_EXP_mp4_40/ANIMEES/11-ANIMEES --- NEUTRES /video10.mp4,DISTRACTEURS-40/DIST.FIXES-20/10.NEUTRES /Dist.fix.neutre7.mp4,,,,,,,,,,,,1279.1734,1286.4351,-0.509166667,-0.296666667,1,0,0,7.2611,Faux,0,5,5,5,1,,
,,,,,P019,001,2025-01-24_10h21.30.652,Emotion.Memoire.2024,2024.1.5,Win32,59.88023952,,,,,,,,,,,,,,IMAGES_EXP_mp4_40/ANIMEES/10- ANIMEES --NEGATIVES /Video4.mp4,DISTRACTEURS-40/DIST.ANIMÉES-20/10.NÉGATIFS/Dist.animee.negatif4.mp4,,,,,,,,,,,,1286.436,1292.1166,0.503333333,-0.323333333,1,0,0,5.679,Vrai,0,6,6,6,1,,
,,,,,P019,001,2025-01-24_10h21.30.652,Emotion.Memoire.2024,2024.1.5,Win32,59.88023952,,,,,,,,,,,,,,IMAGES_EXP_mp4_40/FIXES/FIX-NEUTRE-mp4/image10.mp4,IMAGES_EXP_mp4_40/FIXES/FIX-NEGATIF-mp4/Image2.mp4,,,,,,,,,,,,1292.1171,1295.125,0.493333333,-0.290833333,1,0,0,3.007,Vrai,0,7,7,7,1,,
,,,,,P019,001,2025-01-24_10h21.30.652,Emotion.Memoire.2024,2024.1.5,Win32,59.88023952,,,,,,,,,,,,,,IMAGES_EXP_mp4_40/ANIMEES/10- ANIMEES --NEGATIVES /Video1.mp4,IMAGES_EXP_mp4_40/FIXES/FIX-NEGATIF-mp4/Image9.mp4,,,,,,,,,,,,1295.1257,1298.4473,0.495833333,-0.306666667,1,0,0,3.3208,Vrai,0,8,8,8,1,,
,,,,,P019,001,2025-01-24_10h21.30.652,Emotion.Memoire.2024,2024.1.5,Win32,59.88023952,,,,,,,,,,,,,,IMAGES_EXP_mp4_40/FIXES/FIX-NEUTRE-mp4/image4.mp4,DISTRACTEURS-40/DIST.FIXES-20/10.NEUTRES /Dist.fix.neutre8.mp4,,,,,,,,,,,,1298.448,1300.6125,-0.498333333,-0.313333333,1,0,0,2.1634,Faux,0,9,9,9,1,,
,,,,,P019,001,2025-01-24_10h21.30.652,Emotion.Memoire.2024,2024.1.5,Win32,59.88023952,,,,,,,,,,,,,,IMAGES_EXP_mp4_40/ANIMEES/11-ANIMEES --- NEUTRES /video6.mp4,DISTRACTEURS-40/DIST.ANIMÉES-20/10.NÉGATIFS/Dist.animee.negatif8.mp4,,,,,,,,,,,,1300.613,1308.3354,-0.509166667,-0.291666667,1,0,0,7.7084,Faux,0,10,10,10,1,,
,,,,,P019,001,2025-01-24_10h21.30.652,Emotion.Memoire.2024,2024.1.5,Win32,59.88023952,,,,,,,,,,,,,,IMAGES_EXP_mp4_40/ANIMEES/11-ANIMEES --- NEUTRES /video9.mp4,IMAGES_EXP_mp4_40/ANIMEES/11-ANIMEES --- NEUTRES /video8.mp4,,,,,,,,,,,,1308.3364,1311.0044,0.534166667,-0.275,1,0,0,2.6674,Vrai,0,11,11,11,1,,
,,,,,P019,001,2025-01-24_10h21.30.652,Emotion.Memoire.2024,2024.1.5,Win32,59.88023952,,,,,,,,,,,,,,IMAGES_EXP_mp4_40/FIXES/FIX-NEUTRE-mp4/image8.mp4,IMAGES_EXP_mp4_40/ANIMEES/10- ANIMEES --NEGATIVES /Video8.mp4,,,,,,,,,,,,1311.0051,1317.5926,0.490833333,-0.280833333,1,0,0,6.5869,Vrai,0,12,12,12,1,,
,,,,,P019,001,2025-01-24_10h21.30.652,Emotion.Memoire.2024,2024.1.5,Win32,59.88023952,,,,,,,,,,,,,,IMAGES_EXP_mp4_40/ANIMEES/11-ANIMEES --- NEUTRES /video5.mp4,DISTRACTEURS-40/DIST.FIXES-20/10.NÉGATIFS/Dist.fix.negatif8.mp4,,,,,,,,,,,,1317.5931,1320.8951,-0.466666667,-0.298333333,1,0,0,3.104,Faux,0,13,13,13,1,,
,,,,,P019,001,2025-01-24_10h21.30.652,Emotion.Memoire.2024,2024.1.5,Win32,59.88023952,,,,,,,,,,,,,,IMAGES_EXP_mp4_40/ANIMEES/11-ANIMEES --- NEUTRES /video1.mp4,DISTRACTEURS-40/DIST.FIXES-20/10.NEUTRES /Dist.fix.neutre2.mp4,,,,,,,,,,,,1320.8955,1334.4393,-0.518333333,-0.304166667,1,0,0,13.3833,Faux,0,14,14,14,1,,
,,,,,P019,001,2025-01-24_10h21.30.652,Emotion.Memoire.2024,2024.1.5,Win32,59.88023952,,,,,,,,,,,,,,IMAGES_EXP_mp4_40/ANIMEES/10- ANIMEES --NEGATIVES /Video9.mp4,DISTRACTEURS-40/DIST.ANIMÉES-20/10.NEUTRES/Dist.animee.neutre10.mp4,,,,,,,,,,,,1334.4452,1342.6287,-0.5075,-0.326666667,1,0,0,8.0452,Faux,0,15,15,15,1,,
,,,,,P019,001,2025-01-24_10h21.30.652,Emotion.Memoire.2024,2024.1.5,Win32,59.88023952,,,,,,,,,,,,,,IMAGES_EXP_mp4_40/ANIMEES/10- ANIMEES --NEGATIVES /Video8.mp4,DISTRACTEURS-40/DIST.FIXES-20/10.NEUTRES /Dist.fix.neutre5.mp4,,,,,,,,,,,,1342.6294,1359.3584,-0.5025,-0.295,1,0,0,16.2114,Faux,0,16,16,16,1,,
,,,,,P019,001,2025-01-24_10h21.30.652,Emotion.Memoire.2024,2024.1.5,Win32,59.88023952,,,,,,,,,,,,,,IMAGES_EXP_mp4_40/FIXES/FIX-NEGATIF-mp4/Image5.mp4,DISTRACTEURS-40/DIST.ANIMÉES-20/10.NEUTRES/Dist.animee.neutre1.mp4,,,,,,,,,,,,1359.359,1361.4266,-0.476666667,-0.301666667,1,0,0,1.9296,Faux,0,17,17,17,1,,
,,,,,P019,001,2025-01-24_10h21.30.652,Emotion.Memoire.2024,2024.1.5,Win32,59.88023952,,,,,,,,,,,,,,IMAGES_EXP_mp4_40/ANIMEES/11-ANIMEES --- NEUTRES /video2.mp4,IMAGES_EXP_mp4_40/FIXES/FIX-NEUTRE-mp4/image5.mp4,,,,,,,,,,,,1361.4272,1363.6708,0.523333333,-0.331666667,1,0,0,2.1047,Vrai,0,18,18,18,1,,
,,,,,P019,001,2025-01-24_10h21.30.652,Emotion.Memoire.2024,2024.1.5,Win32,59.88023952,,,,,,,,,,,,,,IMAGES_EXP_mp4_40/ANIMEES/10- ANIMEES --NEGATIVES /Video7.mp4,IMAGES_EXP_mp4_40/FIXES/FIX-NEUTRE-mp4/image7.mp4,,,,,,,,,,,,1363.6712,1367.1481,0.523333333,-0.331666667,1,0,0,3.387,Vrai,0,19,19,19,1,,
,,,,,P019,001,2025-01-24_10h21.30.652,Emotion.Memoire.2024,2024.1.5,Win32,59.88023952,,,,,,,,,,,,,,IMAGES_EXP_mp4_40/FIXES/FIX-NEUTRE-mp4/image5.mp4,IMAGES_EXP_mp4_40/ANIMEES/10- ANIMEES --NEGATIVES /Video10.mp4,,,,,,,,,,,,1367.1489,1371.4686,0.483333333,-0.293333333,1,0,0,4.3187,Vrai,0,20,20,20,1,,
,,,,,P019,001,2025-01-24_10h21.30.652,Emotion.Memoire.2024,2024.1.5,Win32,59.88023952,,,,,,,,,,,,,,IMAGES_EXP_mp4_40/ANIMEES/11-ANIMEES --- NEUTRES /video3.mp4,IMAGES_EXP_mp4_40/ANIMEES/10- ANIMEES --NEGATIVES /Video4.mp4,,,,,,,,,,,,1371.4697,1378.3902,0.510833333,-0.3125,1,0,0,6.8083,Vrai,0,21,21,21,1,,
,,,,,P019,001,2025-01-24_10h21.30.652,Emotion.Memoire.2024,2024.1.5,Win32,59.88023952,,,,,,,,,,,,,,IMAGES_EXP_mp4_40/ANIMEES/10- ANIMEES --NEGATIVES /Video5.mp4,IMAGES_EXP_mp4_40/ANIMEES/10- ANIMEES --NEGATIVES /Video5.mp4,,,,,,,,,,,,1378.3908,1385.145,0.510833333,-0.3125,1,0,0,6.6827,Vrai,0,22,22,22,1,,
,,,,,P019,001,2025-01-24_10h21.30.652,Emotion.Memoire.2024,2024.1.5,Win32,59.88023952,,,,,,,,,,,,,,IMAGES_EXP_mp4_40/ANIMEES/11-ANIMEES --- NEUTRES /video7.mp4,IMAGES_EXP_mp4_40/ANIMEES/11-ANIMEES --- NEUTRES /video6.mp4,,,,,,,,,,,,1385.1457,1393.8855,0.483333333,-0.31,1,0,0,8.7099,Vrai,0,23,23,23,1,,
,,,,,P019,001,2025-01-24_10h21.30.652,Emotion.Memoire.2024,2024.1.5,Win32,59.88023952,,,,,,,,,,,,,,IMAGES_EXP_mp4_40/FIXES/FIX-NEGATIF-mp4/Image8.mp4,IMAGES_EXP_mp4_40/ANIMEES/11-ANIMEES --- NEUTRES /video5.mp4,,,,,,,,,,,,1393.8861,1401.4246,0.495833333,-0.308333333,1,0,0,7.4406,Vrai,0,24,24,24,1,,
,,,,,P019,001,2025-01-24_10h21.30.652,Emotion.Memoire.2024,2024.1.5,Win32,59.88023952,,,,,,,,,,,,,,IMAGES_EXP_mp4_40/FIXES/FIX-NEGATIF-mp4/Image2.mp4,DISTRACTEURS-40/DIST.ANIMÉES-20/10.NÉGATIFS/Dist.animee.negatif5.mp4,,,,,,,,,,,,1401.4251,1409.1477,0.4875,-0.321666667,1,0,0,7.6852,Vrai,0,25,25,25,1,,
,,,,,P019,001,2025-01-24_10h21.30.652,Emotion.Memoire.2024,2024.1.5,Win32,59.88023952,,,,,,,,,,,,,,IMAGES_EXP_mp4_40/FIXES/FIX-NEUTRE-mp4/image7.mp4,DISTRACTEURS-40/DIST.ANIMÉES-20/10.NEUTRES/Dist.animee.neutre4.mp4,,,,,,,,,,,,1409.1484,1412.71,-0.474166667,-0.303333333,1,0,0,3.543,Faux,0,26,26,26,1,,
,,,,,P019,001,2025-01-24_10h21.30.652,Emotion.Memoire.2024,2024.1.5,Win32,59.88023952,,,,,,,,,,,,,,IMAGES_EXP_mp4_40/ANIMEES/11-ANIMEES --- NEUTRES /video4.mp4,DISTRACTEURS-40/DIST.FIXES-20/10.NEUTRES /Dist.fix.neutre10.mp4,,,,,,,,,,,,1412.7106,1434.1503,-0.494166667,-0.295833333,1,0,0,20.9367,Faux,0,27,27,27,1,,
,,,,,P019,001,2025-01-24_10h21.30.652,Emotion.Memoire.2024,2024.1.5,Win32,59.88023952,,,,,,,,,,,,,,IMAGES_EXP_mp4_40/FIXES/FIX-NEGATIF-mp4/Image1.mp4,IMAGES_EXP_mp4_40/FIXES/FIX-NEGATIF-mp4/Image3.mp4,,,,,,,,,,,,1434.1514,1436.8086,0.535,-0.305,1,0,0,2.6039,Vrai,0,28,28,28,1,,
,,,,,P019,001,2025-01-24_10h21.30.652,Emotion.Memoire.2024,2024.1.5,Win32,59.88023952,,,,,,,,,,,,,,IMAGES_EXP_mp4_40/ANIMEES/10- ANIMEES --NEGATIVES /Video10.mp4,DISTRACTEURS-40/DIST.FIXES-20/10.NÉGATIFS/Dist.fix.negatif6.mp4,,,,,,,,,,,,1436.8092,1441.4127,-0.490833333,-0.3025,1,0,0,4.538,Faux,0,29,29,29,1,,
,,,,,P019,001,2025-01-24_10h21.30.652,Emotion.Memoire.2024,2024.1.5,Win32,59.88023952,,,,,,,,,,,,,,IMAGES_EXP_mp4_40/ANIMEES/11-ANIMEES --- NEUTRES /video8.mp4,IMAGES_EXP_mp4_40/ANIMEES/11-ANIMEES --- NEUTRES /video1.mp4,,,,,,,,,,,,1441.4133,1446.6103,0.506666667,-0.303333333,1,0,0,5.1775,Vrai,0,30,30,30,1,,
,,,,,P019,001,2025-01-24_10h21.30.652,Emotion.Memoire.2024,2024.1.5,Win32,59.88023952,,,,,,,,,,,,,,IMAGES_EXP_mp4_40/FIXES/FIX-NEUTRE-mp4/image6.mp4,IMAGES_EXP_mp4_40/FIXES/FIX-NEUTRE-mp4/image9.mp4,,,,,,,,,,,,1446.611,1449.9462,0.4975,-0.305,1,0,0,3.2297,Vrai,0,31,31,31,1,,
,,,,,P019,001,2025-01-24_10h21.30.652,Emotion.Memoire.2024,2024.1.5,Win32,59.88023952,,,,,,,,,,,,,,IMAGES_EXP_mp4_40/ANIMEES/10- ANIMEES --NEGATIVES /Video2.mp4,IMAGES_EXP_mp4_40/ANIMEES/10- ANIMEES --NEGATIVES /Video6.mp4,,,,,,,,,,,,1449.9469,1453.8491,0.4975,-0.305,1,0,0,3.9016,Vrai,0,32,32,32,1,,
,,,,,P019,001,2025-01-24_10h21.30.652,Emotion.Memoire.2024,2024.1.5,Win32,59.88023952,,,,,,,,,,,,,,IMAGES_EXP_mp4_40/ANIMEES/10- ANIMEES --NEGATIVES /Video3.mp4,IMAGES_EXP_mp4_40/ANIMEES/11-ANIMEES --- NEUTRES /video3.mp4,,,,,,,,,,,,1453.8499,1459.0034,0.4975,-0.305,1,0,0,5.1387,Vrai,0,33,33,33,1,,
,,,,,P019,001,2025-01-24_10h21.30.652,Emotion.Memoire.2024,2024.1.5,Win32,59.88023952,,,,,,,,,,,,,,IMAGES_EXP_mp4_40/FIXES/FIX-NEUTRE-mp4/image2.mp4,DISTRACTEURS-40/DIST.ANIMÉES-20/10.NÉGATIFS/Dist.animee.negatif7.mp4,,,,,,,,,,,,1459.0041,1467.0428,-0.473333333,-0.32,1,0,0,7.8492,Faux,0,34,34,34,1,,
,,,,,P019,001,2025-01-24_10h21.30.652,Emotion.Memoire.2024,2024.1.5,Win32,59.88023952,,,,,,,,,,,,,,IMAGES_EXP_mp4_40/FIXES/FIX-NEUTRE-mp4/image3.mp4,IMAGES_EXP_mp4_40/ANIMEES/11-ANIMEES --- NEUTRES /video9.mp4,,,,,,,,,,,,1467.0439,1474.7319,0.503333333,-0.288333333,1,0,0,7.6496,Vrai,0,35,35,35,1,,
,,,,,P019,001,2025-01-24_10h21.30.652,Emotion.Memoire.2024,2024.1.5,Win32,59.88023952,,,,,,,,,,,,,,IMAGES_EXP_mp4_40/FIXES/FIX-NEGATIF-mp4/Image9.mp4,DISTRACTEURS-40/DIST.ANIMÉES-20/10.NEUTRES/Dist.animee.neutre6.mp4,,,,,,,,,,,,1474.7326,1485.7739,-0.474166667,-0.289166667,1,0,0,10.9805,Faux,0,36,36,36,1,,
,,,,,P019,001,2025-01-24_10h21.30.652,Emotion.Memoire.2024,2024.1.5,Win32,59.88023952,,,,,,,,,,,,,,IMAGES_EXP_mp4_40/FIXES/FIX-NEGATIF-mp4/Image7.mp4,IMAGES_EXP_mp4_40/FIXES/FIX-NEGATIF-mp4/Image8.mp4,,,,,,,,,,,,1485.8121,1488.3261,0.499166667,-0.304166667,1,0,0,2.4902,Vrai,0,37,37,37,1,,
,,,,,P019,001,2025-01-24_10h21.30.652,Emotion.Memoire.2024,2024.1.5,Win32,59.88023952,,,,,,,,,,,,,,IMAGES_EXP_mp4_40/ANIMEES/10- ANIMEES --NEGATIVES /Video6.mp4,IMAGES_EXP_mp4_40/FIXES/FIX-NEUTRE-mp4/image8.mp4,,,,,,,,,,,,1488.3276,1491.295,0.54,-0.3,1,0,0,2.8348,Vrai,0,38,38,38,1,,
,,,,,P019,001,2025-01-24_10h21.30.652,Emotion.Memoire.2024,2024.1.5,Win32,59.88023952,,,,,,,,,,,,,,IMAGES_EXP_mp4_40/FIXES/FIX-NEUTRE-mp4/image1.mp4,IMAGES_EXP_mp4_40/ANIMEES/11-ANIMEES --- NEUTRES /video7.mp4,,,,,,,,,,,,1491.2955,1498.1671,0.501666667,-0.270833333,1,0,0,6.7715,Vrai,0,39,39,39,1,,
,,,,,P019,001,2025-01-24_10h21.30.652,Emotion.Memoire.2024,2024.1.5,Win32,59.88023952,,,,,,,,,,,,,,IMAGES_EXP_mp4_40/ANIMEES/10- ANIMEES --NEGATIVES /Video1.mp4,DISTRACTEURS-40/DIST.ANIMÉES-20/10.NÉGATIFS/Dist.animee.negatif1.mp4,,,,,,,,,,,,1498.1679,1504.689,-0.496666667,-0.288333333,1,0,0,5.7733,Faux,0,40,40,40,1,,
,,,,,P019,001,2025-01-24_10h21.30.652,Emotion.Memoire.2024,2024.1.5,Win32,59.88023952,,,,,,,,,,,,,,,DISTRACTEURS-40/DIST.FIXES-20/10.NEUTRES /Dist.fix.neutre9.mp4,,,,,,,,,,,,1504.6898,1507.2978,-0.515,-0.283333333,1,0,0,2.5368,Faux,0,41,41,41,1,,
,,,,,P019,001,2025-01-24_10h21.30.652,Emotion.Memoire.2024,2024.1.5,Win32,59.88023952,,,,,,,,,,,,,,,DISTRACTEURS-40/DIST.FIXES-20/10.NÉGATIFS/Dist.fix.negatif7.mp4,,,,,,,,,,,,1507.2988,1510.4891,-0.503333333,-0.2925,1,0,0,3.092,Faux,0,42,42,42,1,,
,,,,,P019,001,2025-01-24_10h21.30.652,Emotion.Memoire.2024,2024.1.5,Win32,59.88023952,,,,,,,,,,,,,,,DISTRACTEURS-40/DIST.ANIMÉES-20/10.NEUTRES/Dist.animee.neutre9.mp4,,,,,,,,,,,,1510.49,1513.1958,-0.503333333,-0.2925,1,0,0,2.5919,Faux,0,43,43,43,1,,
,,,,,P019,001,2025-01-24_10h21.30.652,Emotion.Memoire.2024,2024.1.5,Win32,59.88023952,,,,,,,,,,,,,,,DISTRACTEURS-40/DIST.FIXES-20/10.NÉGATIFS/Dist.fix.negatif1.mp4,,,,,,,,,,,,1513.1974,1515.7032,-0.500833333,-0.2925,1,0,0,2.4395,Faux,0,44,44,44,1,,
,,,,,P019,001,2025-01-24_10h21.30.652,Emotion.Memoire.2024,2024.1.5,Win32,59.88023952,,,,,,,,,,,,,,,DISTRACTEURS-40/DIST.ANIMÉES-20/10.NÉGATIFS/Dist.animee.negatif6.mp4,,,,,,,,,,,,1515.7037,1518.9194,-0.498333333,-0.2775,1,0,0,3.215,Faux,0,45,45,45,1,,
,,,,,P019,001,2025-01-24_10h21.30.652,Emotion.Memoire.2024,2024.1.5,Win32,59.88023952,,,,,,,,,,,,,,,DISTRACTEURS-40/DIST.ANIMÉES-20/10.NÉGATIFS/Dist.animee.negatif2.mp4,,,,,,,,,,,,1518.9202,1522.1675,-0.51,-0.293333333,1,0,0,3.1144,Faux,0,46,46,46,1,,
,,,,,P019,001,2025-01-24_10h21.30.652,Emotion.Memoire.2024,2024.1.5,Win32,59.88023952,,,,,,,,,,,,,,,IMAGES_EXP_mp4_40/FIXES/FIX-NEGATIF-mp4/Image4.mp4,,,,,,,,,,,,1522.1686,1525.605,0.53,-0.295833333,1,0,0,2.9442,Vrai,0,47,47,47,1,,
,,,,,P019,001,2025-01-24_10h21.30.652,Emotion.Memoire.2024,2024.1.5,Win32,59.88023952,,,,,,,,,,,,,,,IMAGES_EXP_mp4_40/ANIMEES/10- ANIMEES --NEGATIVES /Video7.mp4,,,,,,,,,,,,1525.6057,1534.5789,0.520833333,-0.278333333,1,0,0,8.8367,Vrai,0,48,48,48,1,,
,,,,,P019,001,2025-01-24_10h21.30.652,Emotion.Memoire.2024,2024.1.5,Win32,59.88023952,,,,,,,,,,,,,,,IMAGES_EXP_mp4_40/FIXES/FIX-NEUTRE-mp4/image4.mp4,,,,,,,,,,,,1534.5796,1537.3083,0.518333333,-0.311666667,1,0,0,2.3329,Vrai,0,49,49,49,1,,
,,,,,P019,001,2025-01-24_10h21.30.652,Emotion.Memoire.2024,2024.1.5,Win32,59.88023952,,,,,,,,,,,,,,,DISTRACTEURS-40/DIST.FIXES-20/10.NÉGATIFS/Dist.fix.negatif5.mp4,,,,,,,,,,,,1537.3087,1547.9605,-0.478333333,-0.291666667,1,0,0,10.3165,Faux,0,50,50,50,1,,
,,,,,P019,001,2025-01-24_10h21.30.652,Emotion.Memoire.2024,2024.1.5,Win32,59.88023952,,,,,,,,,,,,,,,DISTRACTEURS-40/DIST.ANIMÉES-20/10.NÉGATIFS/Dist.animee.negatif9.mp4,,,,,,,,,,,,1547.9611,1553.2406,-0.510833333,-0.283333333,1,0,0,4.9867,Faux,0,51,51,51,1,,
,,,,,P019,001,2025-01-24_10h21.30.652,Emotion.Memoire.2024,2024.1.5,Win32,59.88023952,,,,,,,,,,,,,,,IMAGES_EXP_mp4_40/ANIMEES/11-ANIMEES --- NEUTRES /video2.mp4,,,,,,,,,,,,1553.2416,1559.9989,0.511666667,-0.275833333,1,0,0,6.6254,Vrai,0,52,52,52,1,,
,,,,,P019,001,2025-01-24_10h21.30.652,Emotion.Memoire.2024,2024.1.5,Win32,59.88023952,,,,,,,,,,,,,,,DISTRACTEURS-40/DIST.ANIMÉES-20/10.NEUTRES/Dist.animee.neutre5.mp4,,,,,,,,,,,,1559.9999,1568.0759,-0.513333333,-0.295,1,0,0,7.8964,Faux,0,53,53,53,1,,
,,,,,P019,001,2025-01-24_10h21.30.652,Emotion.Memoire.2024,2024.1.5,Win32,59.88023952,,,,,,,,,,,,,,,IMAGES_EXP_mp4_40/FIXES/FIX-NEGATIF-mp4/Image7.mp4,,,,,,,,,,,,1568.0766,1577.2624,0.528333333,-0.286666667,1,0,0,8.9875,Vrai,0,54,54,54,1,,
,,,,,P019,001,2025-01-24_10h21.30.652,Emotion.Memoire.2024,2024.1.5,Win32,59.88023952,,,,,,,,,,,,,,,IMAGES_EXP_mp4_40/FIXES/FIX-NEGATIF-mp4/Image6.mp4,,,,,,,,,,,,1577.2628,1579.1634,0.501666667,-0.305,1,0,0,1.8625,Vrai,0,55,55,55,1,,
,,,,,P019,001,2025-01-24_10h21.30.652,Emotion.Memoire.2024,2024.1.5,Win32,59.88023952,,,,,,,,,,,,,,,IMAGES_EXP_mp4_40/FIXES/FIX-NEGATIF-mp4/Image5.mp4,,,,,,,,,,,,1579.164,1583.2564,0.529166667,-0.31,1,0,0,4.0259,Vrai,0,56,56,56,1,,
,,,,,P019,001,2025-01-24_10h21.30.652,Emotion.Memoire.2024,2024.1.5,Win32,59.88023952,,,,,,,,,,,,,,,IMAGES_EXP_mp4_40/ANIMEES/11-ANIMEES --- NEUTRES /video10.mp4,,,,,,,,,,,,1583.2569,1590.9898,0.509166667,-0.2525,1,0,0,7.4474,Vrai,0,57,57,57,1,,
,,,,,P019,001,2025-01-24_10h21.30.652,Emotion.Memoire.2024,2024.1.5,Win32,59.88023952,,,,,,,,,,,,,,,DISTRACTEURS-40/DIST.FIXES-20/10.NEUTRES /Dist.fix.neutre4.mp4,,,,,,,,,,,,1590.9905,1595.3264,-0.500833333,-0.286666667,1,0,0,4.245,Faux,0,58,58,58,1,,
,,,,,P019,001,2025-01-24_10h21.30.652,Emotion.Memoire.2024,2024.1.5,Win32,59.88023952,,,,,,,,,,,,,,,IMAGES_EXP_mp4_40/ANIMEES/11-ANIMEES --- NEUTRES /video4.mp4,,,,,,,,,,,,1595.3269,1604.7838,0.545,-0.299166667,1,0,0,9.3481,Vrai,0,59,59,59,1,,
,,,,,P019,001,2025-01-24_10h21.30.652,Emotion.Memoire.2024,2024.1.5,Win32,59.88023952,,,,,,,,,,,,,,,DISTRACTEURS-40/DIST.FIXES-20/10.NEUTRES /Dist.fix.neutre6.mp4,,,,,,,,,,,,1604.7846,1610.8386,-0.488333333,-0.289166667,1,0,0,5.6703,Faux,0,60,60,60,1,,
,,,,,P019,001,2025-01-24_10h21.30.652,Emotion.Memoire.2024,2024.1.5,Win32,59.88023952,,,,,,,,,,,,,,,DISTRACTEURS-40/DIST.FIXES-20/10.NEUTRES /Dist.fix.neutre3.mp4,,,,,,,,,,,,1610.8392,1614.5504,-0.505833333,-0.295833333,1,0,0,3.6441,Faux,0,61,61,61,1,,
,,,,,P019,001,2025-01-24_10h21.30.652,Emotion.Memoire.2024,2024.1.5,Win32,59.88023952,,,,,,,,,,,,,,,DISTRACTEURS-40/DIST.FIXES-20/10.NÉGATIFS/Dist.fix.negatif10.mp4,,,,,,,,,,,,1614.5509,1616.9265,-0.499166667,-0.305833333,1,0,0,2.2888,Faux,0,62,62,62,1,,
,,,,,P019,001,2025-01-24_10h21.30.652,Emotion.Memoire.2024,2024.1.5,Win32,59.88023952,,,,,,,,,,,,,,,IMAGES_EXP_mp4_40/ANIMEES/10- ANIMEES --NEGATIVES /Video1.mp4,,,,,,,,,,,,1616.9271,1625.0162,0.475,-0.289166667,1,0,0,8.011,Vrai,0,63,63,63,1,,
,,,,,P019,001,2025-01-24_10h21.30.652,Emotion.Memoire.2024,2024.1.5,Win32,59.88023952,,,,,,,,,,,,,,,DISTRACTEURS-40/DIST.FIXES-20/10.NÉGATIFS/Dist.fix.negatif9.mp4,,,,,,,,,,,,1625.0168,1630.0869,-0.5275,-0.316666667,1,0,0,5.0144,Faux,0,64,64,64,1,,
,,,,,P019,001,2025-01-24_10h21.30.652,Emotion.Memoire.2024,2024.1.5,Win32,59.88023952,,,,,,,,,,,,,,,DISTRACTEURS-40/DIST.FIXES-20/10.NÉGATIFS/Dist.fix.negatif2.mp4,,,,,,,,,,,,1630.0874,1636.5733,-0.503333333,-0.298333333,1,0,0,6.3142,Faux,0,65,65,65,1,,
,,,,,P019,001,2025-01-24_10h21.30.652,Emotion.Memoire.2024,2024.1.5,Win32,59.88023952,,,,,,,,,,,,,,,IMAGES_EXP_mp4_40/FIXES/FIX-NEUTRE-mp4/image10.mp4,,,,,,,,,,,,1636.5737,1668.669,-0.4975,-0.304166667,1,0,0,31.0754,Faux,0,66,66,66,1,,
,,,,,P019,001,2025-01-24_10h21.30.652,Emotion.Memoire.2024,2024.1.5,Win32,59.88023952,,,,,,,,,,,,,,,IMAGES_EXP_mp4_40/FIXES/FIX-NEGATIF-mp4/Image1.mp4,,,,,,,,,,,,1669.1211,1694.8041,-0.5,-0.281666667,1,0,0,25.217,Faux,0,67,67,67,1,,
,,,,,P019,001,2025-01-24_10h21.30.652,Emotion.Memoire.2024,2024.1.5,Win32,59.88023952,,,,,,,,,,,,,,,IMAGES_EXP_mp4_40/ANIMEES/10- ANIMEES --NEGATIVES /Video3.mp4,,,,,,,,,,,,1694.9208,1702.9274,0.484166667,-0.305833333,1,0,0,7.914,Vrai,0,68,68,68,1,,
,,,,,P019,001,2025-01-24_10h21.30.652,Emotion.Memoire.2024,2024.1.5,Win32,59.88023952,,,,,,,,,,,,,,,DISTRACTEURS-40/DIST.FIXES-20/10.NEUTRES /Dist.fix.neutre1.mp4,,,,,,,,,,,,1702.9286,1715.3037,-0.4975,-0.31,1,0,0,12.1589,Faux,0,69,69,69,1,,
,,,,,P019,001,2025-01-24_10h21.30.652,Emotion.Memoire.2024,2024.1.5,Win32,59.88023952,,,,,,,,,,,,,,,DISTRACTEURS-40/DIST.FIXES-20/10.NÉGATIFS/Dist.fix.negatif3.mp4,,,,,,,,,,,,1715.3044,1723.5933,-0.501666667,-0.304166667,1,0,0,8.0733,Faux,0,70,70,70,1,,
,,,,,P019,001,2025-01-24_10h21.30.652,Emotion.Memoire.2024,2024.1.5,Win32,59.88023952,,,,,,,,,,,,,,,IMAGES_EXP_mp4_40/FIXES/FIX-NEUTRE-mp4/image3.mp4,,,,,,,,,,,,1723.5943,1725.7784,0.4925,-0.291666667,1,0,0,2.1407,Vrai,0,71,71,71,1,,
,,,,,P019,001,2025-01-24_10h21.30.652,Emotion.Memoire.2024,2024.1.5,Win32,59.88023952,,,,,,,,,,,,,,,IMAGES_EXP_mp4_40/FIXES/FIX-NEGATIF-mp4/Image10.mp4,,,,,,,,,,,,1725.7792,1729.6654,0.495833333,-0.300833333,1,0,0,3.5883,Vrai,0,72,72,72,1,,
,,,,,P019,001,2025-01-24_10h21.30.652,Emotion.Memoire.2024,2024.1.5,Win32,59.88023952,,,,,,,,,,,,,,,IMAGES_EXP_mp4_40/FIXES/FIX-NEUTRE-mp4/image1.mp4,,,,,,,,,,,,1729.6667,1733.0504,0.51,-0.275833333,1,0,0,2.8782,Vrai,0,73,73,73,1,,
,,,,,P019,001,2025-01-24_10h21.30.652,Emotion.Memoire.2024,2024.1.5,Win32,59.88023952,,,,,,,,,,,,,,,DISTRACTEURS-40/DIST.ANIMÉES-20/10.NEUTRES/Dist.animee.neutre8.mp4,,,,,,,,,,,,1733.051,1738.3881,-0.495,-0.304166667,1,0,0,5.1565,Faux,0,74,74,74,1,,
,,,,,P019,001,2025-01-24_10h21.30.652,Emotion.Memoire.2024,2024.1.5,Win32,59.88023952,,,,,,,,,,,,,,,DISTRACTEURS-40/DIST.FIXES-20/10.NÉGATIFS/Dist.fix.negatif4.mp4,,,,,,,,,,,,1738.3887,1746.7957,-0.505,-0.3075,1,0,0,8.2846,Faux,0,75,75,75,1,,
,,,,,P019,001,2025-01-24_10h21.30.652,Emotion.Memoire.2024,2024.1.5,Win32,59.88023952,,,,,,,,,,,,,,,DISTRACTEURS-40/DIST.ANIMÉES-20/10.NÉGATIFS/Dist.animee.negatif3.mp4,,,,,,,,,,,,1746.7973,1756.9195,-0.5125,-0.313333333,1,0,0,9.729,Faux,0,76,76,76,1,,
,,,,,P019,001,2025-01-24_10h21.30.652,Emotion.Memoire.2024,2024.1.5,Win32,59.88023952,,,,,,,,,,,,,,,DISTRACTEURS-40/DIST.ANIMÉES-20/10.NEUTRES/Dist.animee.neutre2.mp4,,,,,,,,,,,,1756.9205,1764.9093,-0.514166667,-0.3275,1,0,0,7.7223,Faux,0,77,77,77,1,,
,,,,,P019,001,2025-01-24_10h21.30.652,Emotion.Memoire.2024,2024.1.5,Win32,59.88023952,,,,,,,,,,,,,,,IMAGES_EXP_mp4_40/ANIMEES/10- ANIMEES --NEGATIVES /Video9.mp4,,,,,,,,,,,,1764.9102,1773.1654,-0.470833333,-0.29,1,0,0,7.195,Faux,0,78,78,78,1,,
,,,,,P019,001,2025-01-24_10h21.30.652,Emotion.Memoire.2024,2024.1.5,Win32,59.88023952,,,,,,,,,,,,,,,DISTRACTEURS-40/DIST.ANIMÉES-20/10.NEUTRES/Dist.animee.neutre7.mp4,,,,,,,,,,,,1773.1661,1777.6637,-0.519166667,-0.283333333,1,0,0,4.2102,Faux,0,79,79,79,1,,
,,,,,P019,001,2025-01-24_10h21.30.652,Emotion.Memoire.2024,2024.1.5,Win32,59.88023952,,,,,,,,,,,,,,,,,,,,,,,,,,,,,,,,,,,,,,,,,1778.8781,1792.6826
