Consigne.started,Consigne.stopped,Key_resp1.keys,Key_resp1.rt,Key_resp1.duration,participant,session,date,expName,psychopyVersion,OS,frameRate,IMAGES.started,IMAGES.stopped,SAM.started,SAM.stopped,Plaisir.response,Plaisir.rt,EVEIL.response,EVEIL.rt,trials.thisRepN,trials.thisTrialN,trials.thisN,trials.thisIndex,trials.ran,ImageFile,ImagesDistracteursFile,Test,Calcul.started,Calcul.stopped,Key_response.keys,Key_response.rt,Key_response.duration,Consigne_reco.started,Consigne_reco.stopped,key_resp_reconn.keys,key_resp_reconn.rt,key_resp_reconn.duration,DISTRACTEURS.started,DISTRACTEURS.stopped,mouse.x,mouse.y,mouse.leftButton,mouse.midButton,mouse.rightButton,mouse.time,mouse.clicked_name,trials_2.thisRepN,trials_2.thisTrialN,trials_2.thisN,trials_2.thisIndex,trials_2.ran
0.0005,42.8758,space,42.7204,,P022,001,2025-04-02_16h13.53.559,Emotion.Memoire.2024,2024.1.5,Win32,59.17159763,,,,,,,,,,,,,,,,,,,,,,,,,,,,,,,,,,,,,,,,
,,,,,P022,001,2025-04-02_16h13.53.559,Emotion.Memoire.2024,2024.1.5,Win32,59.17159763,42.9157,52.8824,52.8831,69.3138,3,8.2916,5,16.4287,0,0,0,0,1,IMAGES_EXP_mp4_40/FIXES/FIX-NEGATIF-mp4/Image6.mp4,DISTRACTEURS-40/DIST.ANIMÉES-20/10.NÉGATIFS/Dist.animee.negatif10.mp4,IMAGES_EXP_mp4_40/ANIMEES/10- ANIMEES --NEGATIVES /Video1.mp4,,,,,,,,,,,,,,,,,,,,,,,,
,,,,,P022,001,2025-04-02_16h13.53.559,Emotion.Memoire.2024,2024.1.5,Win32,59.17159763,69.3144,79.3105,79.3112,87.5077,8,2.9377,2,8.1869,0,1,1,1,1,IMAGES_EXP_mp4_40/FIXES/FIX-NEUTRE-mp4/image9.mp4,DISTRACTEURS-40/DIST.ANIMÉES-20/10.NEUTRES/Dist.animee.neutre3.mp4,DISTRACTEURS-40/DIST.FIXES-20/10.NÉGATIFS/Dist.fix.negatif3.mp4,,,,,,,,,,,,,,,,,,,,,,,,
,,,,,P022,001,2025-04-02_16h13.53.559,Emotion.Memoire.2024,2024.1.5,Win32,59.17159763,87.508,97.5077,97.5082,106.5334,1,3.8693,9,9.0235,0,2,2,2,1,IMAGES_EXP_mp4_40/FIXES/FIX-NEGATIF-mp4/Image3.mp4,IMAGES_EXP_mp4_40/ANIMEES/10- ANIMEES --NEGATIVES /Video2.mp4,DISTRACTEURS-40/DIST.FIXES-20/10.NÉGATIFS/Dist.fix.negatif5.mp4,,,,,,,,,,,,,,,,,,,,,,,,
,,,,,P022,001,2025-04-02_16h13.53.559,Emotion.Memoire.2024,2024.1.5,Win32,59.17159763,106.5338,116.5255,116.5258,122.8505,4,2.6181,6,6.3231,0,3,3,3,1,IMAGES_EXP_mp4_40/FIXES/FIX-NEGATIF-mp4/Image4.mp4,IMAGES_EXP_mp4_40/FIXES/FIX-NEUTRE-mp4/image6.mp4,,,,,,,,,,,,,,,,,,,,,,,,,
,,,,,P022,001,2025-04-02_16h13.53.559,Emotion.Memoire.2024,2024.1.5,Win32,59.17159763,122.851,132.8415,132.8418,137.3818,1,2.035,8,4.5387,0,4,4,4,1,IMAGES_EXP_mp4_40/FIXES/FIX-NEGATIF-mp4/Image10.mp4,IMAGES_EXP_mp4_40/FIXES/FIX-NEUTRE-mp4/image2.mp4,,,,,,,,,,,,,,,,,,,,,,,,,
,,,,,P022,001,2025-04-02_16h13.53.559,Emotion.Memoire.2024,2024.1.5,Win32,59.17159763,137.3821,147.373,147.3732,155.65,8,5.0874,1,8.2758,0,5,5,5,1,IMAGES_EXP_mp4_40/ANIMEES/11-ANIMEES --- NEUTRES /video10.mp4,DISTRACTEURS-40/DIST.FIXES-20/10.NEUTRES /Dist.fix.neutre7.mp4,,,,,,,,,,,,,,,,,,,,,,,,,
,,,,,P022,001,2025-04-02_16h13.53.559,Emotion.Memoire.2024,2024.1.5,Win32,59.17159763,155.6503,165.6424,165.6429,173.9359,4,4.2209,6,8.2897,0,6,6,6,1,IMAGES_EXP_mp4_40/ANIMEES/10- ANIMEES --NEGATIVES /Video4.mp4,DISTRACTEURS-40/DIST.ANIMÉES-20/10.NÉGATIFS/Dist.animee.negatif4.mp4,,,,,,,,,,,,,,,,,,,,,,,,,
,,,,,P022,001,2025-04-02_16h13.53.559,Emotion.Memoire.2024,2024.1.5,Win32,59.17159763,173.9366,183.9343,183.9351,190.3483,9,3.7757,1,6.4052,0,7,7,7,1,IMAGES_EXP_mp4_40/FIXES/FIX-NEUTRE-mp4/image10.mp4,IMAGES_EXP_mp4_40/FIXES/FIX-NEGATIF-mp4/Image2.mp4,,,,,,,,,,,,,,,,,,,,,,,,,
,,,,,P022,001,2025-04-02_16h13.53.559,Emotion.Memoire.2024,2024.1.5,Win32,59.17159763,190.3493,200.3479,200.3487,204.6284,1,1.6381,8,4.2708,0,8,8,8,1,IMAGES_EXP_mp4_40/ANIMEES/10- ANIMEES --NEGATIVES /Video1.mp4,IMAGES_EXP_mp4_40/FIXES/FIX-NEGATIF-mp4/Image9.mp4,,,,,,,,,,,,,,,,,,,,,,,,,
,,,,,P022,001,2025-04-02_16h13.53.559,Emotion.Memoire.2024,2024.1.5,Win32,59.17159763,204.6289,214.6259,214.6265,226.0354,9,2.3651,6,11.4076,0,9,9,9,1,IMAGES_EXP_mp4_40/FIXES/FIX-NEUTRE-mp4/image4.mp4,DISTRACTEURS-40/DIST.FIXES-20/10.NEUTRES /Dist.fix.neutre8.mp4,,,,,,,,,,,,,,,,,,,,,,,,,
,,,,,P022,001,2025-04-02_16h13.53.559,Emotion.Memoire.2024,2024.1.5,Win32,59.17159763,226.0355,236.0286,236.0288,241.6192,8,2.2671,1,5.5886,0,10,10,10,1,IMAGES_EXP_mp4_40/ANIMEES/11-ANIMEES --- NEUTRES /video6.mp4,DISTRACTEURS-40/DIST.ANIMÉES-20/10.NÉGATIFS/Dist.animee.negatif8.mp4,,,,,,,,,,,,,,,,,,,,,,,,,
,,,,,P022,001,2025-04-02_16h13.53.559,Emotion.Memoire.2024,2024.1.5,Win32,59.17159763,241.6199,251.6207,251.6214,256.5668,8,3.0906,8,4.9436,0,11,11,11,1,IMAGES_EXP_mp4_40/ANIMEES/11-ANIMEES --- NEUTRES /video9.mp4,IMAGES_EXP_mp4_40/ANIMEES/11-ANIMEES --- NEUTRES /video8.mp4,,,,,,,,,,,,,,,,,,,,,,,,,
,,,,,P022,001,2025-04-02_16h13.53.559,Emotion.Memoire.2024,2024.1.5,Win32,59.17159763,256.5671,266.559,266.5593,272.6163,4,3.334,7,6.0554,0,12,12,12,1,IMAGES_EXP_mp4_40/FIXES/FIX-NEUTRE-mp4/image8.mp4,IMAGES_EXP_mp4_40/ANIMEES/10- ANIMEES --NEGATIVES /Video8.mp4,,,,,,,,,,,,,,,,,,,,,,,,,
,,,,,P022,001,2025-04-02_16h13.53.559,Emotion.Memoire.2024,2024.1.5,Win32,59.17159763,272.6165,282.6089,282.6092,291.0903,3,5.7864,8,8.4738,0,13,13,13,1,IMAGES_EXP_mp4_40/ANIMEES/11-ANIMEES --- NEUTRES /video5.mp4,DISTRACTEURS-40/DIST.FIXES-20/10.NÉGATIFS/Dist.fix.negatif8.mp4,,,,,,,,,,,,,,,,,,,,,,,,,
,,,,,P022,001,2025-04-02_16h13.53.559,Emotion.Memoire.2024,2024.1.5,Win32,59.17159763,291.0909,301.0919,301.0921,310.1204,5,2.9362,6,9.0272,0,14,14,14,1,IMAGES_EXP_mp4_40/ANIMEES/11-ANIMEES --- NEUTRES /video1.mp4,DISTRACTEURS-40/DIST.FIXES-20/10.NEUTRES /Dist.fix.neutre2.mp4,,,,,,,,,,,,,,,,,,,,,,,,,
,,,,,P022,001,2025-04-02_16h13.53.559,Emotion.Memoire.2024,2024.1.5,Win32,59.17159763,310.1209,319.3668,319.367,324.3671,1,2.6288,8,4.9984,0,15,15,15,1,IMAGES_EXP_mp4_40/ANIMEES/10- ANIMEES --NEGATIVES /Video9.mp4,DISTRACTEURS-40/DIST.ANIMÉES-20/10.NEUTRES/Dist.animee.neutre10.mp4,,,,,,,,,,,,,,,,,,,,,,,,,
,,,,,P022,001,2025-04-02_16h13.53.559,Emotion.Memoire.2024,2024.1.5,Win32,59.17159763,324.3675,333.2744,333.2746,339.0821,1,1.9011,7,5.8063,0,16,16,16,1,IMAGES_EXP_mp4_40/ANIMEES/10- ANIMEES --NEGATIVES /Video8.mp4,DISTRACTEURS-40/DIST.FIXES-20/10.NEUTRES /Dist.fix.neutre5.mp4,,,,,,,,,,,,,,,,,,,,,,,,,
,,,,,P022,001,2025-04-02_16h13.53.559,Emotion.Memoire.2024,2024.1.5,Win32,59.17159763,339.0824,349.074,349.0742,353.1125,1,1.7842,9,4.0371,0,17,17,17,1,IMAGES_EXP_mp4_40/FIXES/FIX-NEGATIF-mp4/Image5.mp4,DISTRACTEURS-40/DIST.ANIMÉES-20/10.NEUTRES/Dist.animee.neutre1.mp4,,,,,,,,,,,,,,,,,,,,,,,,,
,,,,,P022,001,2025-04-02_16h13.53.559,Emotion.Memoire.2024,2024.1.5,Win32,59.17159763,353.1129,363.1061,363.1067,370.1207,8,3.4732,2,7.0065,0,18,18,18,1,IMAGES_EXP_mp4_40/ANIMEES/11-ANIMEES --- NEUTRES /video2.mp4,IMAGES_EXP_mp4_40/FIXES/FIX-NEUTRE-mp4/image5.mp4,,,,,,,,,,,,,,,,,,,,,,,,,
,,,,,P022,001,2025-04-02_16h13.53.559,Emotion.Memoire.2024,2024.1.5,Win32,59.17159763,370.122,380.119,380.1198,386.4999,5,2.8711,5,6.3747,0,19,19,19,1,IMAGES_EXP_mp4_40/ANIMEES/10- ANIMEES --NEGATIVES /Video7.mp4,IMAGES_EXP_mp4_40/FIXES/FIX-NEUTRE-mp4/image7.mp4,,,,,,,,,,,,,,,,,,,,,,,,,
,,,,,P022,001,2025-04-02_16h13.53.559,Emotion.Memoire.2024,2024.1.5,Win32,59.17159763,386.5004,396.4894,396.4897,400.2965,9,1.7699,1,3.8019,0,20,20,20,1,IMAGES_EXP_mp4_40/FIXES/FIX-NEUTRE-mp4/image5.mp4,IMAGES_EXP_mp4_40/ANIMEES/10- ANIMEES --NEGATIVES /Video10.mp4,,,,,,,,,,,,,,,,,,,,,,,,,
,,,,,P022,001,2025-04-02_16h13.53.559,Emotion.Memoire.2024,2024.1.5,Win32,59.17159763,400.2969,410.286,410.2865,415.2094,8,2.5512,1,4.9198,0,21,21,21,1,IMAGES_EXP_mp4_40/ANIMEES/11-ANIMEES --- NEUTRES /video3.mp4,IMAGES_EXP_mp4_40/ANIMEES/10- ANIMEES --NEGATIVES /Video4.mp4,,,,,,,,,,,,,,,,,,,,,,,,,
,,,,,P022,001,2025-04-02_16h13.53.559,Emotion.Memoire.2024,2024.1.5,Win32,59.17159763,415.2098,425.1995,425.2,431.3052,1,4.0862,8,6.0955,0,22,22,22,1,IMAGES_EXP_mp4_40/ANIMEES/10- ANIMEES --NEGATIVES /Video5.mp4,IMAGES_EXP_mp4_40/ANIMEES/10- ANIMEES --NEGATIVES /Video5.mp4,,,,,,,,,,,,,,,,,,,,,,,,,
,,,,,P022,001,2025-04-02_16h13.53.559,Emotion.Memoire.2024,2024.1.5,Win32,59.17159763,431.3056,441.2963,441.2974,448.6678,8,5.1035,7,7.3674,0,23,23,23,1,IMAGES_EXP_mp4_40/ANIMEES/11-ANIMEES --- NEUTRES /video7.mp4,IMAGES_EXP_mp4_40/ANIMEES/11-ANIMEES --- NEUTRES /video6.mp4,,,,,,,,,,,,,,,,,,,,,,,,,
,,,,,P022,001,2025-04-02_16h13.53.559,Emotion.Memoire.2024,2024.1.5,Win32,59.17159763,448.6683,458.6675,458.6682,466.1138,6,5.0546,5,7.4383,0,24,24,24,1,IMAGES_EXP_mp4_40/FIXES/FIX-NEGATIF-mp4/Image8.mp4,IMAGES_EXP_mp4_40/ANIMEES/11-ANIMEES --- NEUTRES /video5.mp4,,,,,,,,,,,,,,,,,,,,,,,,,
,,,,,P022,001,2025-04-02_16h13.53.559,Emotion.Memoire.2024,2024.1.5,Win32,59.17159763,466.1142,476.1027,476.1035,479.9604,1,2.2493,9,3.8502,0,25,25,25,1,IMAGES_EXP_mp4_40/FIXES/FIX-NEGATIF-mp4/Image2.mp4,DISTRACTEURS-40/DIST.ANIMÉES-20/10.NÉGATIFS/Dist.animee.negatif5.mp4,,,,,,,,,,,,,,,,,,,,,,,,,
,,,,,P022,001,2025-04-02_16h13.53.559,Emotion.Memoire.2024,2024.1.5,Win32,59.17159763,479.9608,489.9644,489.9648,496.4942,7,2.4509,2,6.5279,0,26,26,26,1,IMAGES_EXP_mp4_40/FIXES/FIX-NEUTRE-mp4/image7.mp4,DISTRACTEURS-40/DIST.ANIMÉES-20/10.NEUTRES/Dist.animee.neutre4.mp4,,,,,,,,,,,,,,,,,,,,,,,,,
,,,,,P022,001,2025-04-02_16h13.53.559,Emotion.Memoire.2024,2024.1.5,Win32,59.17159763,496.4945,506.4877,506.4885,513.5851,8,5.3092,1,7.0935,0,27,27,27,1,IMAGES_EXP_mp4_40/ANIMEES/11-ANIMEES --- NEUTRES /video4.mp4,DISTRACTEURS-40/DIST.FIXES-20/10.NEUTRES /Dist.fix.neutre10.mp4,,,,,,,,,,,,,,,,,,,,,,,,,
,,,,,P022,001,2025-04-02_16h13.53.559,Emotion.Memoire.2024,2024.1.5,Win32,59.17159763,513.5854,523.5827,523.5831,529.1147,1,2.8839,8,5.5236,0,28,28,28,1,IMAGES_EXP_mp4_40/FIXES/FIX-NEGATIF-mp4/Image1.mp4,IMAGES_EXP_mp4_40/FIXES/FIX-NEGATIF-mp4/Image3.mp4,,,,,,,,,,,,,,,,,,,,,,,,,
,,,,,P022,001,2025-04-02_16h13.53.559,Emotion.Memoire.2024,2024.1.5,Win32,59.17159763,529.115,539.1147,539.1155,545.1774,1,2.3358,6,6.0531,0,29,29,29,1,IMAGES_EXP_mp4_40/ANIMEES/10- ANIMEES --NEGATIVES /Video10.mp4,DISTRACTEURS-40/DIST.FIXES-20/10.NÉGATIFS/Dist.fix.negatif6.mp4,,,,,,,,,,,,,,,,,,,,,,,,,
,,,,,P022,001,2025-04-02_16h13.53.559,Emotion.Memoire.2024,2024.1.5,Win32,59.17159763,545.1779,555.1787,555.1789,560.9742,8,2.9856,1,5.7937,0,30,30,30,1,IMAGES_EXP_mp4_40/ANIMEES/11-ANIMEES --- NEUTRES /video8.mp4,IMAGES_EXP_mp4_40/ANIMEES/11-ANIMEES --- NEUTRES /video1.mp4,,,,,,,,,,,,,,,,,,,,,,,,,
,,,,,P022,001,2025-04-02_16h13.53.559,Emotion.Memoire.2024,2024.1.5,Win32,59.17159763,560.9744,570.9634,570.9642,575.7529,5,1.8815,6,4.7857,0,31,31,31,1,IMAGES_EXP_mp4_40/FIXES/FIX-NEUTRE-mp4/image6.mp4,IMAGES_EXP_mp4_40/FIXES/FIX-NEUTRE-mp4/image9.mp4,,,,,,,,,,,,,,,,,,,,,,,,,
,,,,,P022,001,2025-04-02_16h13.53.559,Emotion.Memoire.2024,2024.1.5,Win32,59.17159763,575.7533,585.7514,585.7523,589.4661,1,1.8092,9,3.7038,0,32,32,32,1,IMAGES_EXP_mp4_40/ANIMEES/10- ANIMEES --NEGATIVES /Video2.mp4,IMAGES_EXP_mp4_40/ANIMEES/10- ANIMEES --NEGATIVES /Video6.mp4,,,,,,,,,,,,,,,,,,,,,,,,,
,,,,,P022,001,2025-04-02_16h13.53.559,Emotion.Memoire.2024,2024.1.5,Win32,59.17159763,589.4665,599.4634,599.4638,604.9125,1,2.8113,3,5.4459,0,33,33,33,1,IMAGES_EXP_mp4_40/ANIMEES/10- ANIMEES --NEGATIVES /Video3.mp4,IMAGES_EXP_mp4_40/ANIMEES/11-ANIMEES --- NEUTRES /video3.mp4,,,,,,,,,,,,,,,,,,,,,,,,,
,,,,,P022,001,2025-04-02_16h13.53.559,Emotion.Memoire.2024,2024.1.5,Win32,59.17159763,604.913,614.9111,614.9119,618.5427,9,1.859,9,3.6209,0,34,34,34,1,IMAGES_EXP_mp4_40/FIXES/FIX-NEUTRE-mp4/image2.mp4,DISTRACTEURS-40/DIST.ANIMÉES-20/10.NÉGATIFS/Dist.animee.negatif7.mp4,,,,,,,,,,,,,,,,,,,,,,,,,
,,,,,P022,001,2025-04-02_16h13.53.559,Emotion.Memoire.2024,2024.1.5,Win32,59.17159763,618.5432,628.5408,628.5416,632.7894,9,2.2707,2,4.2391,0,35,35,35,1,IMAGES_EXP_mp4_40/FIXES/FIX-NEUTRE-mp4/image3.mp4,IMAGES_EXP_mp4_40/ANIMEES/11-ANIMEES --- NEUTRES /video9.mp4,,,,,,,,,,,,,,,,,,,,,,,,,
,,,,,P022,001,2025-04-02_16h13.53.559,Emotion.Memoire.2024,2024.1.5,Win32,59.17159763,632.7899,642.7743,642.7761,651.0845,2,4.5898,6,8.3068,0,36,36,36,1,IMAGES_EXP_mp4_40/FIXES/FIX-NEGATIF-mp4/Image9.mp4,DISTRACTEURS-40/DIST.ANIMÉES-20/10.NEUTRES/Dist.animee.neutre6.mp4,,,,,,,,,,,,,,,,,,,,,,,,,
,,,,,P022,001,2025-04-02_16h13.53.559,Emotion.Memoire.2024,2024.1.5,Win32,59.17159763,651.0852,661.0259,661.0396,666.5636,1,1.9078,5,5.5177,0,37,37,37,1,IMAGES_EXP_mp4_40/FIXES/FIX-NEGATIF-mp4/Image7.mp4,IMAGES_EXP_mp4_40/FIXES/FIX-NEGATIF-mp4/Image8.mp4,,,,,,,,,,,,,,,,,,,,,,,,,
,,,,,P022,001,2025-04-02_16h13.53.559,Emotion.Memoire.2024,2024.1.5,Win32,59.17159763,666.5644,676.5621,676.5629,680.6605,1,1.4734,8,4.0909,0,38,38,38,1,IMAGES_EXP_mp4_40/ANIMEES/10- ANIMEES --NEGATIVES /Video6.mp4,IMAGES_EXP_mp4_40/FIXES/FIX-NEUTRE-mp4/image8.mp4,,,,,,,,,,,,,,,,,,,,,,,,,
,,,,,P022,001,2025-04-02_16h13.53.559,Emotion.Memoire.2024,2024.1.5,Win32,59.17159763,680.6611,690.6591,690.6598,696.9397,4,3.0763,5,6.2763,0,39,39,39,1,IMAGES_EXP_mp4_40/FIXES/FIX-NEUTRE-mp4/image1.mp4,IMAGES_EXP_mp4_40/ANIMEES/11-ANIMEES --- NEUTRES /video7.mp4,,,,,,,,,,,,,,,,,,,,,,,,,
,,,,,P022,001,2025-04-02_16h13.53.559,Emotion.Memoire.2024,2024.1.5,Win32,59.17159763,,,,,,,,,,,,,,,,,696.9487,1297.0244,space,600.0265,,,,,,,,,,,,,,,,,,,,
,,,,,P022,001,2025-04-02_16h13.53.559,Emotion.Memoire.2024,2024.1.5,Win32,59.17159763,,,,,,,,,,,,,,,,,,,,,,1297.0246,1315.9227,space,18.7877,,,,,,,,,,,,,,,
,,,,,P022,001,2025-04-02_16h13.53.559,Emotion.Memoire.2024,2024.1.5,Win32,59.17159763,,,,,,,,,,,,,,IMAGES_EXP_mp4_40/FIXES/FIX-NEGATIF-mp4/Image6.mp4,DISTRACTEURS-40/DIST.ANIMÉES-20/10.NÉGATIFS/Dist.animee.negatif10.mp4,IMAGES_EXP_mp4_40/ANIMEES/10- ANIMEES --NEGATIVES /Video1.mp4,,,,,,,,,,,1315.9414,1318.5725,-0.480555556,-0.313888889,1,0,0,2.6233,Faux,0,0,0,0,1
,,,,,P022,001,2025-04-02_16h13.53.559,Emotion.Memoire.2024,2024.1.5,Win32,59.17159763,,,,,,,,,,,,,,IMAGES_EXP_mp4_40/FIXES/FIX-NEUTRE-mp4/image9.mp4,DISTRACTEURS-40/DIST.ANIMÉES-20/10.NEUTRES/Dist.animee.neutre3.mp4,DISTRACTEURS-40/DIST.FIXES-20/10.NÉGATIFS/Dist.fix.negatif3.mp4,,,,,,,,,,,1318.5749,1322.4295,-0.496296296,-0.287962963,1,0,0,3.8511,Faux,0,1,1,1,1
,,,,,P022,001,2025-04-02_16h13.53.559,Emotion.Memoire.2024,2024.1.5,Win32,59.17159763,,,,,,,,,,,,,,IMAGES_EXP_mp4_40/FIXES/FIX-NEGATIF-mp4/Image3.mp4,IMAGES_EXP_mp4_40/ANIMEES/10- ANIMEES --NEGATIVES /Video2.mp4,DISTRACTEURS-40/DIST.FIXES-20/10.NÉGATIFS/Dist.fix.negatif5.mp4,,,,,,,,,,,1322.4303,1324.3691,0.518518519,-0.288888889,1,0,0,1.9366,Vrai,0,2,2,2,1
,,,,,P022,001,2025-04-02_16h13.53.559,Emotion.Memoire.2024,2024.1.5,Win32,59.17159763,,,,,,,,,,,,,,IMAGES_EXP_mp4_40/FIXES/FIX-NEGATIF-mp4/Image4.mp4,IMAGES_EXP_mp4_40/FIXES/FIX-NEUTRE-mp4/image6.mp4,,,,,,,,,,,,1324.3717,1326.417,0.482407407,-0.30462963,1,0,0,2.0399,Vrai,0,3,3,3,1
,,,,,P022,001,2025-04-02_16h13.53.559,Emotion.Memoire.2024,2024.1.5,Win32,59.17159763,,,,,,,,,,,,,,IMAGES_EXP_mp4_40/FIXES/FIX-NEGATIF-mp4/Image10.mp4,IMAGES_EXP_mp4_40/FIXES/FIX-NEUTRE-mp4/image2.mp4,,,,,,,,,,,,1326.4177,1328.4013,0.509259259,-0.312037037,1,0,0,1.9817,Vrai,0,4,4,4,1
,,,,,P022,001,2025-04-02_16h13.53.559,Emotion.Memoire.2024,2024.1.5,Win32,59.17159763,,,,,,,,,,,,,,IMAGES_EXP_mp4_40/ANIMEES/11-ANIMEES --- NEUTRES /video10.mp4,DISTRACTEURS-40/DIST.FIXES-20/10.NEUTRES /Dist.fix.neutre7.mp4,,,,,,,,,,,,1328.4031,1331.6427,-0.491666667,-0.288888889,1,0,0,3.2341,Faux,0,5,5,5,1
,,,,,P022,001,2025-04-02_16h13.53.559,Emotion.Memoire.2024,2024.1.5,Win32,59.17159763,,,,,,,,,,,,,,IMAGES_EXP_mp4_40/ANIMEES/10- ANIMEES --NEGATIVES /Video4.mp4,DISTRACTEURS-40/DIST.ANIMÉES-20/10.NÉGATIFS/Dist.animee.negatif4.mp4,,,,,,,,,,,,1331.6437,1334.6498,-0.518518519,-0.312037037,1,0,0,2.9925,Faux,0,6,6,6,1
,,,,,P022,001,2025-04-02_16h13.53.559,Emotion.Memoire.2024,2024.1.5,Win32,59.17159763,,,,,,,,,,,,,,IMAGES_EXP_mp4_40/FIXES/FIX-NEUTRE-mp4/image10.mp4,IMAGES_EXP_mp4_40/FIXES/FIX-NEGATIF-mp4/Image2.mp4,,,,,,,,,,,,1334.6505,1337.4048,0.494444444,-0.280555556,1,0,0,2.7521,Vrai,0,7,7,7,1
,,,,,P022,001,2025-04-02_16h13.53.559,Emotion.Memoire.2024,2024.1.5,Win32,59.17159763,,,,,,,,,,,,,,IMAGES_EXP_mp4_40/ANIMEES/10- ANIMEES --NEGATIVES /Video1.mp4,IMAGES_EXP_mp4_40/FIXES/FIX-NEGATIF-mp4/Image9.mp4,,,,,,,,,,,,1337.4065,1340.0293,0.494444444,-0.322222222,1,0,0,2.6161,Vrai,0,8,8,8,1
,,,,,P022,001,2025-04-02_16h13.53.559,Emotion.Memoire.2024,2024.1.5,Win32,59.17159763,,,,,,,,,,,,,,IMAGES_EXP_mp4_40/FIXES/FIX-NEUTRE-mp4/image4.mp4,DISTRACTEURS-40/DIST.FIXES-20/10.NEUTRES /Dist.fix.neutre8.mp4,,,,,,,,,,,,1340.0646,1355.9285,-0.562962963,-0.317592593,1,0,0,15.8497,Faux,0,9,9,9,1
,,,,,P022,001,2025-04-02_16h13.53.559,Emotion.Memoire.2024,2024.1.5,Win32,59.17159763,,,,,,,,,,,,,,IMAGES_EXP_mp4_40/ANIMEES/11-ANIMEES --- NEUTRES /video6.mp4,DISTRACTEURS-40/DIST.ANIMÉES-20/10.NÉGATIFS/Dist.animee.negatif8.mp4,,,,,,,,,,,,1355.9312,1360.7925,-0.487962963,-0.284259259,1,0,0,4.8525,Faux,0,10,10,10,1
