Consigne.started,Consigne.stopped,Key_resp1.keys,Key_resp1.rt,Key_resp1.duration,participant,session,date,expName,psychopyVersion,OS,frameRate,IMAGES.started,IMAGES.stopped,SAM.started,SAM.stopped,Plaisir.response,Plaisir.rt,EVEIL.response,EVEIL.rt,trials.thisRepN,trials.thisTrialN,trials.thisN,trials.thisIndex,trials.ran,ImageFile,ImagesDistracteursFile,Test,Calcul.started,Calcul.stopped,Key_response.keys,Key_response.rt,Key_response.duration,Consigne_reco.started,Consigne_reco.stopped,key_resp_reconn.keys,key_resp_reconn.rt,key_resp_reconn.duration,DISTRACTEURS.started,DISTRACTEURS.stopped,mouse.x,mouse.y,mouse.leftButton,mouse.midButton,mouse.rightButton,mouse.time,mouse.clicked_name,trials_2.thisRepN,trials_2.thisTrialN,trials_2.thisN,trials_2.thisIndex,trials_2.ran,MERCI.started,MERCI.stopped
0.0008,61.3757,space,60.8206,,P035,001,2025-04-01_00h20.32.444,Emotion.Memoire.2024,2024.1.5,MacIntel,60.24096386,,,,,,,,,,,,,,,,,,,,,,,,,,,,,,,,,,,,,,,,,,
,,,,,P035,001,2025-04-01_00h20.32.444,Emotion.Memoire.2024,2024.1.5,MacIntel,60.24096386,61.4032,71.378,71.3797,90.4791,1,8.6686,5,19.0952,0,0,0,0,1,IMAGES_EXP_mp4_40/FIXES/FIX-NEGATIF-mp4/Image6.mp4,DISTRACTEURS-40/DIST.ANIMÉES-20/10.NÉGATIFS/Dist.animee.negatif10.mp4,IMAGES_EXP_mp4_40/ANIMEES/10- ANIMEES --NEGATIVES /Video1.mp4,,,,,,,,,,,,,,,,,,,,,,,,,,
,,,,,P035,001,2025-04-01_00h20.32.444,Emotion.Memoire.2024,2024.1.5,MacIntel,60.24096386,90.4811,100.4854,100.486,122.3923,7,7.5152,1,21.9025,0,1,1,1,1,IMAGES_EXP_mp4_40/FIXES/FIX-NEUTRE-mp4/image9.mp4,DISTRACTEURS-40/DIST.ANIMÉES-20/10.NEUTRES/Dist.animee.neutre3.mp4,DISTRACTEURS-40/DIST.FIXES-20/10.NÉGATIFS/Dist.fix.negatif3.mp4,,,,,,,,,,,,,,,,,,,,,,,,,,
,,,,,P035,001,2025-04-01_00h20.32.444,Emotion.Memoire.2024,2024.1.5,MacIntel,60.24096386,122.394,132.3823,132.383,150.1713,1,9.537,9,17.7842,0,2,2,2,1,IMAGES_EXP_mp4_40/FIXES/FIX-NEGATIF-mp4/Image3.mp4,IMAGES_EXP_mp4_40/ANIMEES/10- ANIMEES --NEGATIVES /Video2.mp4,DISTRACTEURS-40/DIST.FIXES-20/10.NÉGATIFS/Dist.fix.negatif5.mp4,,,,,,,,,,,,,,,,,,,,,,,,,,
,,,,,P035,001,2025-04-01_00h20.32.444,Emotion.Memoire.2024,2024.1.5,MacIntel,60.24096386,150.173,160.1684,160.1697,175.0608,1,4.9671,9,14.8789,0,3,3,3,1,IMAGES_EXP_mp4_40/FIXES/FIX-NEGATIF-mp4/Image4.mp4,IMAGES_EXP_mp4_40/FIXES/FIX-NEUTRE-mp4/image6.mp4,,,,,,,,,,,,,,,,,,,,,,,,,,,
,,,,,P035,001,2025-04-01_00h20.32.444,Emotion.Memoire.2024,2024.1.5,MacIntel,60.24096386,175.0624,185.0611,185.062,190.4096,1,2.703,9,5.3429,0,4,4,4,1,IMAGES_EXP_mp4_40/FIXES/FIX-NEGATIF-mp4/Image10.mp4,IMAGES_EXP_mp4_40/FIXES/FIX-NEUTRE-mp4/image2.mp4,,,,,,,,,,,,,,,,,,,,,,,,,,,
,,,,,P035,001,2025-04-01_00h20.32.444,Emotion.Memoire.2024,2024.1.5,MacIntel,60.24096386,190.4115,200.4108,200.4121,212.8794,7,7.1984,1,12.4574,0,5,5,5,1,IMAGES_EXP_mp4_40/ANIMEES/11-ANIMEES --- NEUTRES /video10.mp4,DISTRACTEURS-40/DIST.FIXES-20/10.NEUTRES /Dist.fix.neutre7.mp4,,,,,,,,,,,,,,,,,,,,,,,,,,,
,,,,,P035,001,2025-04-01_00h20.32.444,Emotion.Memoire.2024,2024.1.5,MacIntel,60.24096386,212.8805,222.8771,222.8779,235.4256,1,8.2991,4,12.5438,0,6,6,6,1,IMAGES_EXP_mp4_40/ANIMEES/10- ANIMEES --NEGATIVES /Video4.mp4,DISTRACTEURS-40/DIST.ANIMÉES-20/10.NÉGATIFS/Dist.animee.negatif4.mp4,,,,,,,,,,,,,,,,,,,,,,,,,,,
,,,,,P035,001,2025-04-01_00h20.32.444,Emotion.Memoire.2024,2024.1.5,MacIntel,60.24096386,235.4331,245.4164,245.4171,253.3538,7,4.946,1,7.9332,0,7,7,7,1,IMAGES_EXP_mp4_40/FIXES/FIX-NEUTRE-mp4/image10.mp4,IMAGES_EXP_mp4_40/FIXES/FIX-NEGATIF-mp4/Image2.mp4,,,,,,,,,,,,,,,,,,,,,,,,,,,
,,,,,P035,001,2025-04-01_00h20.32.444,Emotion.Memoire.2024,2024.1.5,MacIntel,60.24096386,253.355,263.3527,263.3547,274.3624,1,2.7087,9,11.0022,0,8,8,8,1,IMAGES_EXP_mp4_40/ANIMEES/10- ANIMEES --NEGATIVES /Video1.mp4,IMAGES_EXP_mp4_40/FIXES/FIX-NEGATIF-mp4/Image9.mp4,,,,,,,,,,,,,,,,,,,,,,,,,,,
,,,,,P035,001,2025-04-01_00h20.32.444,Emotion.Memoire.2024,2024.1.5,MacIntel,60.24096386,274.3642,284.3669,284.3676,289.8341,1,2.9002,5,5.4622,0,9,9,9,1,IMAGES_EXP_mp4_40/FIXES/FIX-NEUTRE-mp4/image4.mp4,DISTRACTEURS-40/DIST.FIXES-20/10.NEUTRES /Dist.fix.neutre8.mp4,,,,,,,,,,,,,,,,,,,,,,,,,,,
,,,,,P035,001,2025-04-01_00h20.32.444,Emotion.Memoire.2024,2024.1.5,MacIntel,60.24096386,289.8358,299.838,299.839,306.8837,9,6.0518,9,7.0291,0,10,10,10,1,IMAGES_EXP_mp4_40/ANIMEES/11-ANIMEES --- NEUTRES /video6.mp4,DISTRACTEURS-40/DIST.ANIMÉES-20/10.NÉGATIFS/Dist.animee.negatif8.mp4,,,,,,,,,,,,,,,,,,,,,,,,,,,
,,,,,P035,001,2025-04-01_00h20.32.444,Emotion.Memoire.2024,2024.1.5,MacIntel,60.24096386,306.8856,316.8981,316.9062,332.1681,7,11.7813,4,15.2404,0,11,11,11,1,IMAGES_EXP_mp4_40/ANIMEES/11-ANIMEES --- NEUTRES /video9.mp4,IMAGES_EXP_mp4_40/ANIMEES/11-ANIMEES --- NEUTRES /video8.mp4,,,,,,,,,,,,,,,,,,,,,,,,,,,
,,,,,P035,001,2025-04-01_00h20.32.444,Emotion.Memoire.2024,2024.1.5,MacIntel,60.24096386,332.1726,342.1842,342.1848,351.7339,9,3.2123,4,9.5449,0,12,12,12,1,IMAGES_EXP_mp4_40/FIXES/FIX-NEUTRE-mp4/image8.mp4,IMAGES_EXP_mp4_40/ANIMEES/10- ANIMEES --NEGATIVES /Video8.mp4,,,,,,,,,,,,,,,,,,,,,,,,,,,
,,,,,P035,001,2025-04-01_00h20.32.444,Emotion.Memoire.2024,2024.1.5,MacIntel,60.24096386,351.7357,361.7413,361.7425,373.2211,1,5.6324,5,11.4741,0,13,13,13,1,IMAGES_EXP_mp4_40/ANIMEES/11-ANIMEES --- NEUTRES /video5.mp4,DISTRACTEURS-40/DIST.FIXES-20/10.NÉGATIFS/Dist.fix.negatif8.mp4,,,,,,,,,,,,,,,,,,,,,,,,,,,
,,,,,P035,001,2025-04-01_00h20.32.444,Emotion.Memoire.2024,2024.1.5,MacIntel,60.24096386,373.2228,383.2307,383.2314,388.3117,6,3.0745,4,5.0757,0,14,14,14,1,IMAGES_EXP_mp4_40/ANIMEES/11-ANIMEES --- NEUTRES /video1.mp4,DISTRACTEURS-40/DIST.FIXES-20/10.NEUTRES /Dist.fix.neutre2.mp4,,,,,,,,,,,,,,,,,,,,,,,,,,,
,,,,,P035,001,2025-04-01_00h20.32.444,Emotion.Memoire.2024,2024.1.5,MacIntel,60.24096386,388.3139,398.3081,398.3086,402.4893,1,2.795,1,4.1377,0,15,15,15,1,IMAGES_EXP_mp4_40/ANIMEES/10- ANIMEES --NEGATIVES /Video9.mp4,DISTRACTEURS-40/DIST.ANIMÉES-20/10.NEUTRES/Dist.animee.neutre10.mp4,,,,,,,,,,,,,,,,,,,,,,,,,,,
,,,,,P035,001,2025-04-01_00h20.32.444,Emotion.Memoire.2024,2024.1.5,MacIntel,60.24096386,402.4913,411.8356,411.8358,421.0842,1,2.2696,9,9.2442,0,16,16,16,1,IMAGES_EXP_mp4_40/ANIMEES/10- ANIMEES --NEGATIVES /Video8.mp4,DISTRACTEURS-40/DIST.FIXES-20/10.NEUTRES /Dist.fix.neutre5.mp4,,,,,,,,,,,,,,,,,,,,,,,,,,,
,,,,,P035,001,2025-04-01_00h20.32.444,Emotion.Memoire.2024,2024.1.5,MacIntel,60.24096386,421.0863,431.0985,431.1,438.3027,1,4.167,9,7.198,0,17,17,17,1,IMAGES_EXP_mp4_40/FIXES/FIX-NEGATIF-mp4/Image5.mp4,DISTRACTEURS-40/DIST.ANIMÉES-20/10.NEUTRES/Dist.animee.neutre1.mp4,,,,,,,,,,,,,,,,,,,,,,,,,,,
,,,,,P035,001,2025-04-01_00h20.32.444,Emotion.Memoire.2024,2024.1.5,MacIntel,60.24096386,438.3044,448.2897,448.2911,454.6079,5,4.8594,5,6.3131,0,18,18,18,1,IMAGES_EXP_mp4_40/ANIMEES/11-ANIMEES --- NEUTRES /video2.mp4,IMAGES_EXP_mp4_40/FIXES/FIX-NEUTRE-mp4/image5.mp4,,,,,,,,,,,,,,,,,,,,,,,,,,,
,,,,,P035,001,2025-04-01_00h20.32.444,Emotion.Memoire.2024,2024.1.5,MacIntel,60.24096386,454.6087,464.6034,464.6041,477.5162,1,3.5352,9,12.9066,0,19,19,19,1,IMAGES_EXP_mp4_40/ANIMEES/10- ANIMEES --NEGATIVES /Video7.mp4,IMAGES_EXP_mp4_40/FIXES/FIX-NEUTRE-mp4/image7.mp4,,,,,,,,,,,,,,,,,,,,,,,,,,,
,,,,,P035,001,2025-04-01_00h20.32.444,Emotion.Memoire.2024,2024.1.5,MacIntel,60.24096386,477.5176,487.5383,487.5387,496.232,8,3.823,1,8.6889,0,20,20,20,1,IMAGES_EXP_mp4_40/FIXES/FIX-NEUTRE-mp4/image5.mp4,IMAGES_EXP_mp4_40/ANIMEES/10- ANIMEES --NEGATIVES /Video10.mp4,,,,,,,,,,,,,,,,,,,,,,,,,,,
,,,,,P035,001,2025-04-01_00h20.32.444,Emotion.Memoire.2024,2024.1.5,MacIntel,60.24096386,496.2335,506.2221,506.2228,514.0423,6,2.9011,5,7.8154,0,21,21,21,1,IMAGES_EXP_mp4_40/ANIMEES/11-ANIMEES --- NEUTRES /video3.mp4,IMAGES_EXP_mp4_40/ANIMEES/10- ANIMEES --NEGATIVES /Video4.mp4,,,,,,,,,,,,,,,,,,,,,,,,,,,
,,,,,P035,001,2025-04-01_00h20.32.444,Emotion.Memoire.2024,2024.1.5,MacIntel,60.24096386,514.043,524.0489,524.051,532.8416,1,6.5781,9,8.7854,0,22,22,22,1,IMAGES_EXP_mp4_40/ANIMEES/10- ANIMEES --NEGATIVES /Video5.mp4,IMAGES_EXP_mp4_40/ANIMEES/10- ANIMEES --NEGATIVES /Video5.mp4,,,,,,,,,,,,,,,,,,,,,,,,,,,
,,,,,P035,001,2025-04-01_00h20.32.444,Emotion.Memoire.2024,2024.1.5,MacIntel,60.24096386,532.8426,542.827,542.8285,549.6958,1,3.2512,9,6.861,0,23,23,23,1,IMAGES_EXP_mp4_40/ANIMEES/11-ANIMEES --- NEUTRES /video7.mp4,IMAGES_EXP_mp4_40/ANIMEES/11-ANIMEES --- NEUTRES /video6.mp4,,,,,,,,,,,,,,,,,,,,,,,,,,,
,,,,,P035,001,2025-04-01_00h20.32.444,Emotion.Memoire.2024,2024.1.5,MacIntel,60.24096386,549.6971,559.6882,559.6889,566.9139,5,6.1425,5,7.2132,0,24,24,24,1,IMAGES_EXP_mp4_40/FIXES/FIX-NEGATIF-mp4/Image8.mp4,IMAGES_EXP_mp4_40/ANIMEES/11-ANIMEES --- NEUTRES /video5.mp4,,,,,,,,,,,,,,,,,,,,,,,,,,,
,,,,,P035,001,2025-04-01_00h20.32.444,Emotion.Memoire.2024,2024.1.5,MacIntel,60.24096386,566.9155,576.8978,576.8988,583.8333,1,2.0221,9,6.9305,0,25,25,25,1,IMAGES_EXP_mp4_40/FIXES/FIX-NEGATIF-mp4/Image2.mp4,DISTRACTEURS-40/DIST.ANIMÉES-20/10.NÉGATIFS/Dist.animee.negatif5.mp4,,,,,,,,,,,,,,,,,,,,,,,,,,,
,,,,,P035,001,2025-04-01_00h20.32.444,Emotion.Memoire.2024,2024.1.5,MacIntel,60.24096386,583.8345,593.8247,593.8252,600.5423,7,4.5305,6,6.7133,0,26,26,26,1,IMAGES_EXP_mp4_40/FIXES/FIX-NEUTRE-mp4/image7.mp4,DISTRACTEURS-40/DIST.ANIMÉES-20/10.NEUTRES/Dist.animee.neutre4.mp4,,,,,,,,,,,,,,,,,,,,,,,,,,,
,,,,,P035,001,2025-04-01_00h20.32.444,Emotion.Memoire.2024,2024.1.5,MacIntel,60.24096386,600.5438,610.5445,610.545,616.0458,9,2.0623,1,5.4969,0,27,27,27,1,IMAGES_EXP_mp4_40/ANIMEES/11-ANIMEES --- NEUTRES /video4.mp4,DISTRACTEURS-40/DIST.FIXES-20/10.NEUTRES /Dist.fix.neutre10.mp4,,,,,,,,,,,,,,,,,,,,,,,,,,,
,,,,,P035,001,2025-04-01_00h20.32.444,Emotion.Memoire.2024,2024.1.5,MacIntel,60.24096386,616.0467,626.0883,626.0929,632.2749,1,3.3932,5,6.1782,0,28,28,28,1,IMAGES_EXP_mp4_40/FIXES/FIX-NEGATIF-mp4/Image1.mp4,IMAGES_EXP_mp4_40/FIXES/FIX-NEGATIF-mp4/Image3.mp4,,,,,,,,,,,,,,,,,,,,,,,,,,,
,,,,,P035,001,2025-04-01_00h20.32.444,Emotion.Memoire.2024,2024.1.5,MacIntel,60.24096386,632.2768,642.2204,642.2212,650.7499,1,4.8973,9,8.5249,0,29,29,29,1,IMAGES_EXP_mp4_40/ANIMEES/10- ANIMEES --NEGATIVES /Video10.mp4,DISTRACTEURS-40/DIST.FIXES-20/10.NÉGATIFS/Dist.fix.negatif6.mp4,,,,,,,,,,,,,,,,,,,,,,,,,,,
,,,,,P035,001,2025-04-01_00h20.32.444,Emotion.Memoire.2024,2024.1.5,MacIntel,60.24096386,650.7508,660.7503,660.7509,672.7369,9,6.3002,1,11.9821,0,30,30,30,1,IMAGES_EXP_mp4_40/ANIMEES/11-ANIMEES --- NEUTRES /video8.mp4,IMAGES_EXP_mp4_40/ANIMEES/11-ANIMEES --- NEUTRES /video1.mp4,,,,,,,,,,,,,,,,,,,,,,,,,,,
,,,,,P035,001,2025-04-01_00h20.32.444,Emotion.Memoire.2024,2024.1.5,MacIntel,60.24096386,672.7386,682.7398,682.7403,688.0924,5,3.3161,5,5.3482,0,31,31,31,1,IMAGES_EXP_mp4_40/FIXES/FIX-NEUTRE-mp4/image6.mp4,IMAGES_EXP_mp4_40/FIXES/FIX-NEUTRE-mp4/image9.mp4,,,,,,,,,,,,,,,,,,,,,,,,,,,
,,,,,P035,001,2025-04-01_00h20.32.444,Emotion.Memoire.2024,2024.1.5,MacIntel,60.24096386,688.0934,698.0784,698.0794,706.5937,1,4.9652,9,8.5105,0,32,32,32,1,IMAGES_EXP_mp4_40/ANIMEES/10- ANIMEES --NEGATIVES /Video2.mp4,IMAGES_EXP_mp4_40/ANIMEES/10- ANIMEES --NEGATIVES /Video6.mp4,,,,,,,,,,,,,,,,,,,,,,,,,,,
,,,,,P035,001,2025-04-01_00h20.32.444,Emotion.Memoire.2024,2024.1.5,MacIntel,60.24096386,706.595,716.5983,716.6001,720.0809,1,1.5279,9,3.464,0,33,33,33,1,IMAGES_EXP_mp4_40/ANIMEES/10- ANIMEES --NEGATIVES /Video3.mp4,IMAGES_EXP_mp4_40/ANIMEES/11-ANIMEES --- NEUTRES /video3.mp4,,,,,,,,,,,,,,,,,,,,,,,,,,,
,,,,,P035,001,2025-04-01_00h20.32.444,Emotion.Memoire.2024,2024.1.5,MacIntel,60.24096386,720.0823,730.0893,730.09,737.7165,7,3.5133,2,7.6223,0,34,34,34,1,IMAGES_EXP_mp4_40/FIXES/FIX-NEUTRE-mp4/image2.mp4,DISTRACTEURS-40/DIST.ANIMÉES-20/10.NÉGATIFS/Dist.animee.negatif7.mp4,,,,,,,,,,,,,,,,,,,,,,,,,,,
,,,,,P035,001,2025-04-01_00h20.32.444,Emotion.Memoire.2024,2024.1.5,MacIntel,60.24096386,737.7179,747.704,747.7045,755.9456,9,2.5894,1,8.2367,0,35,35,35,1,IMAGES_EXP_mp4_40/FIXES/FIX-NEUTRE-mp4/image3.mp4,IMAGES_EXP_mp4_40/ANIMEES/11-ANIMEES --- NEUTRES /video9.mp4,,,,,,,,,,,,,,,,,,,,,,,,,,,
,,,,,P035,001,2025-04-01_00h20.32.444,Emotion.Memoire.2024,2024.1.5,MacIntel,60.24096386,755.9469,765.6255,765.6262,772.1905,1,6.4254,1,6.5599,0,36,36,36,1,IMAGES_EXP_mp4_40/FIXES/FIX-NEGATIF-mp4/Image9.mp4,DISTRACTEURS-40/DIST.ANIMÉES-20/10.NEUTRES/Dist.animee.neutre6.mp4,,,,,,,,,,,,,,,,,,,,,,,,,,,
,,,,,P035,001,2025-04-01_00h20.32.444,Emotion.Memoire.2024,2024.1.5,MacIntel,60.24096386,772.192,780.651,780.6599,786.2223,1,3.9118,1,5.5551,0,37,37,37,1,IMAGES_EXP_mp4_40/FIXES/FIX-NEGATIF-mp4/Image7.mp4,IMAGES_EXP_mp4_40/FIXES/FIX-NEGATIF-mp4/Image8.mp4,,,,,,,,,,,,,,,,,,,,,,,,,,,
,,,,,P035,001,2025-04-01_00h20.32.444,Emotion.Memoire.2024,2024.1.5,MacIntel,60.24096386,786.2264,796.2148,796.2161,806.4151,1,3.4945,9,10.1942,0,38,38,38,1,IMAGES_EXP_mp4_40/ANIMEES/10- ANIMEES --NEGATIVES /Video6.mp4,IMAGES_EXP_mp4_40/FIXES/FIX-NEUTRE-mp4/image8.mp4,,,,,,,,,,,,,,,,,,,,,,,,,,,
,,,,,P035,001,2025-04-01_00h20.32.444,Emotion.Memoire.2024,2024.1.5,MacIntel,60.24096386,806.4273,816.437,816.4388,830.299,5,12.7883,5,13.8539,0,39,39,39,1,IMAGES_EXP_mp4_40/FIXES/FIX-NEUTRE-mp4/image1.mp4,IMAGES_EXP_mp4_40/ANIMEES/11-ANIMEES --- NEUTRES /video7.mp4,,,,,,,,,,,,,,,,,,,,,,,,,,,
,,,,,P035,001,2025-04-01_00h20.32.444,Emotion.Memoire.2024,2024.1.5,MacIntel,60.24096386,,,,,,,,,,,,,,,,,830.3902,1066.3787,space,235.635,0.0475,,,,,,,,,,,,,,,,,,,,,
,,,,,P035,001,2025-04-01_00h20.32.444,Emotion.Memoire.2024,2024.1.5,MacIntel,60.24096386,,,,,,,,,,,,,,,,,,,,,,1066.3799,1089.3065,space,22.2547,,,,,,,,,,,,,,,,,
,,,,,P035,001,2025-04-01_00h20.32.444,Emotion.Memoire.2024,2024.1.5,MacIntel,60.24096386,,,,,,,,,,,,,,IMAGES_EXP_mp4_40/FIXES/FIX-NEGATIF-mp4/Image6.mp4,DISTRACTEURS-40/DIST.ANIMÉES-20/10.NÉGATIFS/Dist.animee.negatif10.mp4,IMAGES_EXP_mp4_40/ANIMEES/10- ANIMEES --NEGATIVES /Video1.mp4,,,,,,,,,,,1089.4006,1092.2517,-0.51852417,-0.304005941,1,0,0,2.8004,Faux,0,0,0,0,1,,
,,,,,P035,001,2025-04-01_00h20.32.444,Emotion.Memoire.2024,2024.1.5,MacIntel,60.24096386,,,,,,,,,,,,,,IMAGES_EXP_mp4_40/FIXES/FIX-NEUTRE-mp4/image9.mp4,DISTRACTEURS-40/DIST.ANIMÉES-20/10.NEUTRES/Dist.animee.neutre3.mp4,DISTRACTEURS-40/DIST.FIXES-20/10.NÉGATIFS/Dist.fix.negatif3.mp4,,,,,,,,,,,1092.254,1093.9188,-0.498728434,-0.326766968,1,0,0,1.6096,Faux,0,1,1,1,1,,
,,,,,P035,001,2025-04-01_00h20.32.444,Emotion.Memoire.2024,2024.1.5,MacIntel,60.24096386,,,,,,,,,,,,,,IMAGES_EXP_mp4_40/FIXES/FIX-NEGATIF-mp4/Image3.mp4,IMAGES_EXP_mp4_40/ANIMEES/10- ANIMEES --NEGATIVES /Video2.mp4,DISTRACTEURS-40/DIST.FIXES-20/10.NÉGATIFS/Dist.fix.negatif5.mp4,,,,,,,,,,,1093.9203,1096.235,0.523447673,-0.216389974,1,0,0,2.3003,Vrai,0,2,2,2,1,,
,,,,,P035,001,2025-04-01_00h20.32.444,Emotion.Memoire.2024,2024.1.5,MacIntel,60.24096386,,,,,,,,,,,,,,IMAGES_EXP_mp4_40/FIXES/FIX-NEGATIF-mp4/Image4.mp4,IMAGES_EXP_mp4_40/FIXES/FIX-NEUTRE-mp4/image6.mp4,,,,,,,,,,,,1096.2369,1097.8956,0.509328206,-0.263519287,1,0,0,1.6493,Vrai,0,3,3,3,1,,
,,,,,P035,001,2025-04-01_00h20.32.444,Emotion.Memoire.2024,2024.1.5,MacIntel,60.24096386,,,,,,,,,,,,,,IMAGES_EXP_mp4_40/FIXES/FIX-NEGATIF-mp4/Image10.mp4,IMAGES_EXP_mp4_40/FIXES/FIX-NEUTRE-mp4/image2.mp4,,,,,,,,,,,,1097.898,1100.1884,0.509328206,-0.263519287,1,0,0,2.2858,Vrai,0,4,4,4,1,,
,,,,,P035,001,2025-04-01_00h20.32.444,Emotion.Memoire.2024,2024.1.5,MacIntel,60.24096386,,,,,,,,,,,,,,IMAGES_EXP_mp4_40/ANIMEES/11-ANIMEES --- NEUTRES /video10.mp4,DISTRACTEURS-40/DIST.FIXES-20/10.NEUTRES /Dist.fix.neutre7.mp4,,,,,,,,,,,,1100.1908,1131.3512,-0.508646647,-0.26352946,1,0,0,31.1008,Faux,0,5,5,5,1,,
,,,,,P035,001,2025-04-01_00h20.32.444,Emotion.Memoire.2024,2024.1.5,MacIntel,60.24096386,,,,,,,,,,,,,,IMAGES_EXP_mp4_40/ANIMEES/10- ANIMEES --NEGATIVES /Video4.mp4,DISTRACTEURS-40/DIST.ANIMÉES-20/10.NÉGATIFS/Dist.animee.negatif4.mp4,,,,,,,,,,,,1131.3547,1133.0474,-0.508646647,-0.26352946,1,0,0,1.6635,Faux,0,6,6,6,1,,
,,,,,P035,001,2025-04-01_00h20.32.444,Emotion.Memoire.2024,2024.1.5,MacIntel,60.24096386,,,,,,,,,,,,,,IMAGES_EXP_mp4_40/FIXES/FIX-NEUTRE-mp4/image10.mp4,IMAGES_EXP_mp4_40/FIXES/FIX-NEGATIF-mp4/Image2.mp4,,,,,,,,,,,,1133.0491,1135.8789,0.525904338,-0.292882284,1,0,0,2.8182,Vrai,0,7,7,7,1,,
,,,,,P035,001,2025-04-01_00h20.32.444,Emotion.Memoire.2024,2024.1.5,MacIntel,60.24096386,,,,,,,,,,,,,,IMAGES_EXP_mp4_40/ANIMEES/10- ANIMEES --NEGATIVES /Video1.mp4,IMAGES_EXP_mp4_40/FIXES/FIX-NEGATIF-mp4/Image9.mp4,,,,,,,,,,,,1135.8807,1145.694,-0.532536825,-0.319035848,1,0,0,9.8079,Faux,0,8,8,8,1,,
,,,,,P035,001,2025-04-01_00h20.32.444,Emotion.Memoire.2024,2024.1.5,MacIntel,60.24096386,,,,,,,,,,,,,,IMAGES_EXP_mp4_40/FIXES/FIX-NEUTRE-mp4/image4.mp4,DISTRACTEURS-40/DIST.FIXES-20/10.NEUTRES /Dist.fix.neutre8.mp4,,,,,,,,,,,,1145.6978,1154.8815,-0.493179321,-0.280273438,1,0,0,9.1144,Faux,0,9,9,9,1,,
,,,,,P035,001,2025-04-01_00h20.32.444,Emotion.Memoire.2024,2024.1.5,MacIntel,60.24096386,,,,,,,,,,,,,,IMAGES_EXP_mp4_40/ANIMEES/11-ANIMEES --- NEUTRES /video6.mp4,DISTRACTEURS-40/DIST.ANIMÉES-20/10.NÉGATIFS/Dist.animee.negatif8.mp4,,,,,,,,,,,,1154.9369,1157.1019,-0.48526001,-0.288889567,1,0,0,2.1131,Faux,0,10,10,10,1,,
,,,,,P035,001,2025-04-01_00h20.32.444,Emotion.Memoire.2024,2024.1.5,MacIntel,60.24096386,,,,,,,,,,,,,,IMAGES_EXP_mp4_40/ANIMEES/11-ANIMEES --- NEUTRES /video9.mp4,IMAGES_EXP_mp4_40/ANIMEES/11-ANIMEES --- NEUTRES /video8.mp4,,,,,,,,,,,,1157.104,1160.5492,0.505045573,-0.287348429,1,0,0,3.3996,Vrai,0,11,11,11,1,,
,,,,,P035,001,2025-04-01_00h20.32.444,Emotion.Memoire.2024,2024.1.5,MacIntel,60.24096386,,,,,,,,,,,,,,IMAGES_EXP_mp4_40/FIXES/FIX-NEUTRE-mp4/image8.mp4,IMAGES_EXP_mp4_40/ANIMEES/10- ANIMEES --NEGATIVES /Video8.mp4,,,,,,,,,,,,1160.5584,1162.2595,0.505045573,-0.287348429,1,0,0,1.4736,Vrai,0,12,12,12,1,,
,,,,,P035,001,2025-04-01_00h20.32.444,Emotion.Memoire.2024,2024.1.5,MacIntel,60.24096386,,,,,,,,,,,,,,IMAGES_EXP_mp4_40/ANIMEES/11-ANIMEES --- NEUTRES /video5.mp4,DISTRACTEURS-40/DIST.FIXES-20/10.NÉGATIFS/Dist.fix.negatif8.mp4,,,,,,,,,,,,1162.2614,1165.1494,-0.523086548,-0.290944417,1,0,0,2.8179,Faux,0,13,13,13,1,,
,,,,,P035,001,2025-04-01_00h20.32.444,Emotion.Memoire.2024,2024.1.5,MacIntel,60.24096386,,,,,,,,,,,,,,IMAGES_EXP_mp4_40/ANIMEES/11-ANIMEES --- NEUTRES /video1.mp4,DISTRACTEURS-40/DIST.FIXES-20/10.NEUTRES /Dist.fix.neutre2.mp4,,,,,,,,,,,,1165.1527,1171.2827,-0.49798584,-0.288828532,1,0,0,6.0691,Faux,0,14,14,14,1,,
,,,,,P035,001,2025-04-01_00h20.32.444,Emotion.Memoire.2024,2024.1.5,MacIntel,60.24096386,,,,,,,,,,,,,,IMAGES_EXP_mp4_40/ANIMEES/10- ANIMEES --NEGATIVES /Video9.mp4,DISTRACTEURS-40/DIST.ANIMÉES-20/10.NEUTRES/Dist.animee.neutre10.mp4,,,,,,,,,,,,1171.2871,1173.9934,-0.485366821,-0.253819784,1,0,0,2.6747,Faux,0,15,15,15,1,,
,,,,,P035,001,2025-04-01_00h20.32.444,Emotion.Memoire.2024,2024.1.5,MacIntel,60.24096386,,,,,,,,,,,,,,IMAGES_EXP_mp4_40/ANIMEES/10- ANIMEES --NEGATIVES /Video8.mp4,DISTRACTEURS-40/DIST.FIXES-20/10.NEUTRES /Dist.fix.neutre5.mp4,,,,,,,,,,,,1173.9952,1182.7182,-0.512797038,-0.289388021,1,0,0,8.6558,Faux,0,16,16,16,1,,
,,,,,P035,001,2025-04-01_00h20.32.444,Emotion.Memoire.2024,2024.1.5,MacIntel,60.24096386,,,,,,,,,,,,,,IMAGES_EXP_mp4_40/FIXES/FIX-NEGATIF-mp4/Image5.mp4,DISTRACTEURS-40/DIST.ANIMÉES-20/10.NEUTRES/Dist.animee.neutre1.mp4,,,,,,,,,,,,1182.7311,1184.0894,-0.512797038,-0.289388021,1,0,0,1.3119,Faux,0,17,17,17,1,,
,,,,,P035,001,2025-04-01_00h20.32.444,Emotion.Memoire.2024,2024.1.5,MacIntel,60.24096386,,,,,,,,,,,,,,IMAGES_EXP_mp4_40/ANIMEES/11-ANIMEES --- NEUTRES /video2.mp4,IMAGES_EXP_mp4_40/FIXES/FIX-NEUTRE-mp4/image5.mp4,,,,,,,,,,,,1184.0912,1186.2308,0.498138428,-0.301228841,1,0,0,2.0982,Vrai,0,18,18,18,1,,
,,,,,P035,001,2025-04-01_00h20.32.444,Emotion.Memoire.2024,2024.1.5,MacIntel,60.24096386,,,,,,,,,,,,,,IMAGES_EXP_mp4_40/ANIMEES/10- ANIMEES --NEGATIVES /Video7.mp4,IMAGES_EXP_mp4_40/FIXES/FIX-NEUTRE-mp4/image7.mp4,,,,,,,,,,,,1186.2329,1187.7032,0.498138428,-0.301228841,1,0,0,1.431,Vrai,0,19,19,19,1,,
,,,,,P035,001,2025-04-01_00h20.32.444,Emotion.Memoire.2024,2024.1.5,MacIntel,60.24096386,,,,,,,,,,,,,,IMAGES_EXP_mp4_40/FIXES/FIX-NEUTRE-mp4/image5.mp4,IMAGES_EXP_mp4_40/ANIMEES/10- ANIMEES --NEGATIVES /Video10.mp4,,,,,,,,,,,,1187.707,1188.9012,0.498138428,-0.301228841,1,0,0,1.1471,Vrai,0,20,20,20,1,,
,,,,,P035,001,2025-04-01_00h20.32.444,Emotion.Memoire.2024,2024.1.5,MacIntel,60.24096386,,,,,,,,,,,,,,IMAGES_EXP_mp4_40/ANIMEES/11-ANIMEES --- NEUTRES /video3.mp4,IMAGES_EXP_mp4_40/ANIMEES/10- ANIMEES --NEGATIVES /Video4.mp4,,,,,,,,,,,,1188.9114,1190.5181,0.498138428,-0.301228841,1,0,0,1.5661,Vrai,0,21,21,21,1,,
,,,,,P035,001,2025-04-01_00h20.32.444,Emotion.Memoire.2024,2024.1.5,MacIntel,60.24096386,,,,,,,,,,,,,,IMAGES_EXP_mp4_40/ANIMEES/10- ANIMEES --NEGATIVES /Video5.mp4,IMAGES_EXP_mp4_40/ANIMEES/10- ANIMEES --NEGATIVES /Video5.mp4,,,,,,,,,,,,1190.5203,1191.664,0.498138428,-0.301228841,1,0,0,1.1235,Vrai,0,22,22,22,1,,
,,,,,P035,001,2025-04-01_00h20.32.444,Emotion.Memoire.2024,2024.1.5,MacIntel,60.24096386,,,,,,,,,,,,,,IMAGES_EXP_mp4_40/ANIMEES/11-ANIMEES --- NEUTRES /video7.mp4,IMAGES_EXP_mp4_40/ANIMEES/11-ANIMEES --- NEUTRES /video6.mp4,,,,,,,,,,,,1191.6669,1192.8019,0.498138428,-0.301228841,1,0,0,1.1142,Vrai,0,23,23,23,1,,
,,,,,P035,001,2025-04-01_00h20.32.444,Emotion.Memoire.2024,2024.1.5,MacIntel,60.24096386,,,,,,,,,,,,,,IMAGES_EXP_mp4_40/FIXES/FIX-NEGATIF-mp4/Image8.mp4,IMAGES_EXP_mp4_40/ANIMEES/11-ANIMEES --- NEUTRES /video5.mp4,,,,,,,,,,,,1192.8035,1194.5378,0.498138428,-0.301228841,1,0,0,1.7276,Vrai,0,24,24,24,1,,
,,,,,P035,001,2025-04-01_00h20.32.444,Emotion.Memoire.2024,2024.1.5,MacIntel,60.24096386,,,,,,,,,,,,,,IMAGES_EXP_mp4_40/FIXES/FIX-NEGATIF-mp4/Image2.mp4,DISTRACTEURS-40/DIST.ANIMÉES-20/10.NÉGATIFS/Dist.animee.negatif5.mp4,,,,,,,,,,,,1194.539,1220.5187,-0.490407308,-0.284805298,1,0,0,25.2583,Faux,0,25,25,25,1,,
,,,,,P035,001,2025-04-01_00h20.32.444,Emotion.Memoire.2024,2024.1.5,MacIntel,60.24096386,,,,,,,,,,,,,,IMAGES_EXP_mp4_40/FIXES/FIX-NEUTRE-mp4/image7.mp4,DISTRACTEURS-40/DIST.ANIMÉES-20/10.NEUTRES/Dist.animee.neutre4.mp4,,,,,,,,,,,,1220.8969,1223.4458,-0.508407593,-0.323852539,1,0,0,2.3278,Faux,0,26,26,26,1,,
,,,,,P035,001,2025-04-01_00h20.32.444,Emotion.Memoire.2024,2024.1.5,MacIntel,60.24096386,,,,,,,,,,,,,,IMAGES_EXP_mp4_40/ANIMEES/11-ANIMEES --- NEUTRES /video4.mp4,DISTRACTEURS-40/DIST.FIXES-20/10.NEUTRES /Dist.fix.neutre10.mp4,,,,,,,,,,,,1223.4505,1231.9645,-0.507049561,-0.28507487,1,0,0,8.4181,Faux,0,27,27,27,1,,
,,,,,P035,001,2025-04-01_00h20.32.444,Emotion.Memoire.2024,2024.1.5,MacIntel,60.24096386,,,,,,,,,,,,,,IMAGES_EXP_mp4_40/FIXES/FIX-NEGATIF-mp4/Image1.mp4,IMAGES_EXP_mp4_40/FIXES/FIX-NEGATIF-mp4/Image3.mp4,,,,,,,,,,,,1232.1145,1235.3486,0.485702515,-0.289428711,1,0,0,3.128,Vrai,0,28,28,28,1,,
,,,,,P035,001,2025-04-01_00h20.32.444,Emotion.Memoire.2024,2024.1.5,MacIntel,60.24096386,,,,,,,,,,,,,,IMAGES_EXP_mp4_40/ANIMEES/10- ANIMEES --NEGATIVES /Video10.mp4,DISTRACTEURS-40/DIST.FIXES-20/10.NÉGATIFS/Dist.fix.negatif6.mp4,,,,,,,,,,,,1235.3516,1240.8429,-0.4737854,-0.280288696,1,0,0,5.3403,Faux,0,29,29,29,1,,
,,,,,P035,001,2025-04-01_00h20.32.444,Emotion.Memoire.2024,2024.1.5,MacIntel,60.24096386,,,,,,,,,,,,,,IMAGES_EXP_mp4_40/ANIMEES/11-ANIMEES --- NEUTRES /video8.mp4,IMAGES_EXP_mp4_40/ANIMEES/11-ANIMEES --- NEUTRES /video1.mp4,,,,,,,,,,,,1240.8446,1242.9555,0.467753092,-0.299662272,1,0,0,2.0933,Vrai,0,30,30,30,1,,
,,,,,P035,001,2025-04-01_00h20.32.444,Emotion.Memoire.2024,2024.1.5,MacIntel,60.24096386,,,,,,,,,,,,,,IMAGES_EXP_mp4_40/FIXES/FIX-NEUTRE-mp4/image6.mp4,IMAGES_EXP_mp4_40/FIXES/FIX-NEUTRE-mp4/image9.mp4,,,,,,,,,,,,1242.9582,1244.1645,0.467753092,-0.299662272,1,0,0,1.1112,Vrai,0,31,31,31,1,,
,,,,,P035,001,2025-04-01_00h20.32.444,Emotion.Memoire.2024,2024.1.5,MacIntel,60.24096386,,,,,,,,,,,,,,IMAGES_EXP_mp4_40/ANIMEES/10- ANIMEES --NEGATIVES /Video2.mp4,IMAGES_EXP_mp4_40/ANIMEES/10- ANIMEES --NEGATIVES /Video6.mp4,,,,,,,,,,,,1244.1655,1245.4519,0.467753092,-0.299662272,1,0,0,1.1897,Vrai,0,32,32,32,1,,
,,,,,P035,001,2025-04-01_00h20.32.444,Emotion.Memoire.2024,2024.1.5,MacIntel,60.24096386,,,,,,,,,,,,,,IMAGES_EXP_mp4_40/ANIMEES/10- ANIMEES --NEGATIVES /Video3.mp4,IMAGES_EXP_mp4_40/ANIMEES/11-ANIMEES --- NEUTRES /video3.mp4,,,,,,,,,,,,1245.4532,1252.5876,0.512664795,-0.309595744,1,0,0,7.1035,Vrai,0,33,33,33,1,,
,,,,,P035,001,2025-04-01_00h20.32.444,Emotion.Memoire.2024,2024.1.5,MacIntel,60.24096386,,,,,,,,,,,,,,IMAGES_EXP_mp4_40/FIXES/FIX-NEUTRE-mp4/image2.mp4,DISTRACTEURS-40/DIST.ANIMÉES-20/10.NÉGATIFS/Dist.animee.negatif7.mp4,,,,,,,,,,,,1252.591,1255.6678,-0.506047567,-0.322479248,1,0,0,3.0228,Faux,0,34,34,34,1,,
,,,,,P035,001,2025-04-01_00h20.32.444,Emotion.Memoire.2024,2024.1.5,MacIntel,60.24096386,,,,,,,,,,,,,,IMAGES_EXP_mp4_40/FIXES/FIX-NEUTRE-mp4/image3.mp4,IMAGES_EXP_mp4_40/ANIMEES/11-ANIMEES --- NEUTRES /video9.mp4,,,,,,,,,,,,1255.6691,1271.8665,-0.513046265,-0.303120931,1,0,0,15.8404,Faux,0,35,35,35,1,,
,,,,,P035,001,2025-04-01_00h20.32.444,Emotion.Memoire.2024,2024.1.5,MacIntel,60.24096386,,,,,,,,,,,,,,IMAGES_EXP_mp4_40/FIXES/FIX-NEGATIF-mp4/Image9.mp4,DISTRACTEURS-40/DIST.ANIMÉES-20/10.NEUTRES/Dist.animee.neutre6.mp4,,,,,,,,,,,,1272.3667,1279.7086,-0.485285441,-0.273295085,1,0,0,6.9256,Faux,0,36,36,36,1,,
,,,,,P035,001,2025-04-01_00h20.32.444,Emotion.Memoire.2024,2024.1.5,MacIntel,60.24096386,,,,,,,,,,,,,,IMAGES_EXP_mp4_40/FIXES/FIX-NEGATIF-mp4/Image7.mp4,IMAGES_EXP_mp4_40/FIXES/FIX-NEGATIF-mp4/Image8.mp4,,,,,,,,,,,,1280.0959,1283.674,0.501373291,-0.29657491,1,0,0,3.4506,Vrai,0,37,37,37,1,,
,,,,,P035,001,2025-04-01_00h20.32.444,Emotion.Memoire.2024,2024.1.5,MacIntel,60.24096386,,,,,,,,,,,,,,IMAGES_EXP_mp4_40/ANIMEES/10- ANIMEES --NEGATIVES /Video6.mp4,IMAGES_EXP_mp4_40/FIXES/FIX-NEUTRE-mp4/image8.mp4,,,,,,,,,,,,1283.7294,1285.1281,0.501373291,-0.29657491,1,0,0,1.3149,Vrai,0,38,38,38,1,,
,,,,,P035,001,2025-04-01_00h20.32.444,Emotion.Memoire.2024,2024.1.5,MacIntel,60.24096386,,,,,,,,,,,,,,IMAGES_EXP_mp4_40/FIXES/FIX-NEUTRE-mp4/image1.mp4,IMAGES_EXP_mp4_40/ANIMEES/11-ANIMEES --- NEUTRES /video7.mp4,,,,,,,,,,,,1285.1293,1288.6271,-0.507156372,-0.317932129,1,0,0,3.4353,Faux,0,39,39,39,1,,
,,,,,P035,001,2025-04-01_00h20.32.444,Emotion.Memoire.2024,2024.1.5,MacIntel,60.24096386,,,,,,,,,,,,,,IMAGES_EXP_mp4_40/ANIMEES/10- ANIMEES --NEGATIVES /Video1.mp4,DISTRACTEURS-40/DIST.ANIMÉES-20/10.NÉGATIFS/Dist.animee.negatif1.mp4,,,,,,,,,,,,1288.6311,1290.8155,-0.507156372,-0.317932129,1,0,0,2.0107,Faux,0,40,40,40,1,,
,,,,,P035,001,2025-04-01_00h20.32.444,Emotion.Memoire.2024,2024.1.5,MacIntel,60.24096386,,,,,,,,,,,,,,,DISTRACTEURS-40/DIST.FIXES-20/10.NEUTRES /Dist.fix.neutre9.mp4,,,,,,,,,,,,1290.8165,1305.519,-0.478230794,-0.312011719,1,0,0,14.6549,Faux,0,41,41,41,1,,
,,,,,P035,001,2025-04-01_00h20.32.444,Emotion.Memoire.2024,2024.1.5,MacIntel,60.24096386,,,,,,,,,,,,,,,DISTRACTEURS-40/DIST.FIXES-20/10.NÉGATIFS/Dist.fix.negatif7.mp4,,,,,,,,,,,,1305.5292,1326.5459,-0.474360148,-0.321573893,1,0,0,20.9565,Faux,0,42,42,42,1,,
,,,,,P035,001,2025-04-01_00h20.32.444,Emotion.Memoire.2024,2024.1.5,MacIntel,60.24096386,,,,,,,,,,,,,,,DISTRACTEURS-40/DIST.ANIMÉES-20/10.NEUTRES/Dist.animee.neutre9.mp4,,,,,,,,,,,,1326.5645,1329.9913,-0.513763428,-0.287857056,1,0,0,3.0685,Faux,0,43,43,43,1,,
,,,,,P035,001,2025-04-01_00h20.32.444,Emotion.Memoire.2024,2024.1.5,MacIntel,60.24096386,,,,,,,,,,,,,,,DISTRACTEURS-40/DIST.FIXES-20/10.NÉGATIFS/Dist.fix.negatif1.mp4,,,,,,,,,,,,1330.3187,1332.6323,-0.481282552,-0.302113851,1,0,0,1.8038,Faux,0,44,44,44,1,,
,,,,,P035,001,2025-04-01_00h20.32.444,Emotion.Memoire.2024,2024.1.5,MacIntel,60.24096386,,,,,,,,,,,,,,,DISTRACTEURS-40/DIST.ANIMÉES-20/10.NÉGATIFS/Dist.animee.negatif6.mp4,,,,,,,,,,,,1332.6345,1340.8177,-0.498667399,-0.326965332,1,0,0,8.0555,Faux,0,45,45,45,1,,
,,,,,P035,001,2025-04-01_00h20.32.444,Emotion.Memoire.2024,2024.1.5,MacIntel,60.24096386,,,,,,,,,,,,,,,DISTRACTEURS-40/DIST.ANIMÉES-20/10.NÉGATIFS/Dist.animee.negatif2.mp4,,,,,,,,,,,,1340.8313,1345.149,-0.485427856,-0.281305949,1,0,0,3.4962,Faux,0,46,46,46,1,,
,,,,,P035,001,2025-04-01_00h20.32.444,Emotion.Memoire.2024,2024.1.5,MacIntel,60.24096386,,,,,,,,,,,,,,,IMAGES_EXP_mp4_40/FIXES/FIX-NEGATIF-mp4/Image4.mp4,,,,,,,,,,,,1345.1528,1352.0896,0.504018148,-0.282577515,1,0,0,6.2933,Vrai,0,47,47,47,1,,
,,,,,P035,001,2025-04-01_00h20.32.444,Emotion.Memoire.2024,2024.1.5,MacIntel,60.24096386,,,,,,,,,,,,,,,IMAGES_EXP_mp4_40/ANIMEES/10- ANIMEES --NEGATIVES /Video7.mp4,,,,,,,,,,,,1352.1769,1372.0349,-0.484283447,-0.328613281,1,0,0,18.9389,Faux,0,48,48,48,1,,
,,,,,P035,001,2025-04-01_00h20.32.444,Emotion.Memoire.2024,2024.1.5,MacIntel,60.24096386,,,,,,,,,,,,,,,IMAGES_EXP_mp4_40/FIXES/FIX-NEUTRE-mp4/image4.mp4,,,,,,,,,,,,1372.0365,1374.6527,0.487472534,-0.289733887,1,0,0,2.5454,Vrai,0,49,49,49,1,,
,,,,,P035,001,2025-04-01_00h20.32.444,Emotion.Memoire.2024,2024.1.5,MacIntel,60.24096386,,,,,,,,,,,,,,,DISTRACTEURS-40/DIST.FIXES-20/10.NÉGATIFS/Dist.fix.negatif5.mp4,,,,,,,,,,,,1374.6545,1387.3462,-0.481465658,-0.306482951,1,0,0,12.0412,Faux,0,50,50,50,1,,
,,,,,P035,001,2025-04-01_00h20.32.444,Emotion.Memoire.2024,2024.1.5,MacIntel,60.24096386,,,,,,,,,,,,,,,DISTRACTEURS-40/DIST.ANIMÉES-20/10.NÉGATIFS/Dist.animee.negatif9.mp4,,,,,,,,,,,,1387.5353,1392.0131,-0.481465658,-0.306482951,1,0,0,3.8831,Faux,0,51,51,51,1,,
,,,,,P035,001,2025-04-01_00h20.32.444,Emotion.Memoire.2024,2024.1.5,MacIntel,60.24096386,,,,,,,,,,,,,,,IMAGES_EXP_mp4_40/ANIMEES/11-ANIMEES --- NEUTRES /video2.mp4,,,,,,,,,,,,1392.0247,1395.3954,0.469833374,-0.280741374,1,0,0,2.8944,Vrai,0,52,52,52,1,,
,,,,,P035,001,2025-04-01_00h20.32.444,Emotion.Memoire.2024,2024.1.5,MacIntel,60.24096386,,,,,,,,,,,,,,,DISTRACTEURS-40/DIST.ANIMÉES-20/10.NEUTRES/Dist.animee.neutre5.mp4,,,,,,,,,,,,1395.4176,1479.3255,-0.224492391,-0.42276001,1,0,0,28.839,Faux,0,53,53,53,1,,
,,,,,P035,001,2025-04-01_00h20.32.444,Emotion.Memoire.2024,2024.1.5,MacIntel,60.24096386,,,,,,,,,,,,,,,IMAGES_EXP_mp4_40/FIXES/FIX-NEGATIF-mp4/Image7.mp4,,,,,,,,,,,,1479.4425,1488.8706,-0.474527995,-0.272649129,1,0,0,9.3951,Faux,0,54,54,54,1,,
,,,,,P035,001,2025-04-01_00h20.32.444,Emotion.Memoire.2024,2024.1.5,MacIntel,60.24096386,,,,,,,,,,,,,,,IMAGES_EXP_mp4_40/FIXES/FIX-NEGATIF-mp4/Image6.mp4,,,,,,,,,,,,1488.8784,1492.2905,0.548467,-0.299942017,1,0,0,3.3809,Vrai,0,55,55,55,1,,
,,,,,P035,001,2025-04-01_00h20.32.444,Emotion.Memoire.2024,2024.1.5,MacIntel,60.24096386,,,,,,,,,,,,,,,IMAGES_EXP_mp4_40/FIXES/FIX-NEGATIF-mp4/Image5.mp4,,,,,,,,,,,,1492.294,1494.3486,0.548467,-0.299942017,1,0,0,2.0341,Vrai,0,56,56,56,1,,
,,,,,P035,001,2025-04-01_00h20.32.444,Emotion.Memoire.2024,2024.1.5,MacIntel,60.24096386,,,,,,,,,,,,,,,IMAGES_EXP_mp4_40/ANIMEES/11-ANIMEES --- NEUTRES /video10.mp4,,,,,,,,,,,,1494.3514,1495.8674,0.548467,-0.299942017,1,0,0,1.4604,Vrai,0,57,57,57,1,,
,,,,,P035,001,2025-04-01_00h20.32.444,Emotion.Memoire.2024,2024.1.5,MacIntel,60.24096386,,,,,,,,,,,,,,,DISTRACTEURS-40/DIST.FIXES-20/10.NEUTRES /Dist.fix.neutre4.mp4,,,,,,,,,,,,1495.8704,1505.602,-0.514241536,-0.299321493,1,0,0,9.6993,Faux,0,58,58,58,1,,
,,,,,P035,001,2025-04-01_00h20.32.444,Emotion.Memoire.2024,2024.1.5,MacIntel,60.24096386,,,,,,,,,,,,,,,IMAGES_EXP_mp4_40/ANIMEES/11-ANIMEES --- NEUTRES /video4.mp4,,,,,,,,,,,,1505.6061,1507.5438,0.500152588,-0.335245768,1,0,0,1.9195,Vrai,0,59,59,59,1,,
,,,,,P035,001,2025-04-01_00h20.32.444,Emotion.Memoire.2024,2024.1.5,MacIntel,60.24096386,,,,,,,,,,,,,,,DISTRACTEURS-40/DIST.FIXES-20/10.NEUTRES /Dist.fix.neutre6.mp4,,,,,,,,,,,,1507.5456,1521.1479,-0.485280355,-0.284418742,1,0,0,13.5841,Faux,0,60,60,60,1,,
,,,,,P035,001,2025-04-01_00h20.32.444,Emotion.Memoire.2024,2024.1.5,MacIntel,60.24096386,,,,,,,,,,,,,,,DISTRACTEURS-40/DIST.FIXES-20/10.NEUTRES /Dist.fix.neutre3.mp4,,,,,,,,,,,,1521.1752,1541.4015,-0.51528422,-0.354970296,1,0,0,19.9875,Faux,0,61,61,61,1,,
,,,,,P035,001,2025-04-01_00h20.32.444,Emotion.Memoire.2024,2024.1.5,MacIntel,60.24096386,,,,,,,,,,,,,,,DISTRACTEURS-40/DIST.FIXES-20/10.NÉGATIFS/Dist.fix.negatif10.mp4,,,,,,,,,,,,1541.4229,1547.5462,-0.513799032,-0.326039632,1,0,0,5.9859,Faux,0,62,62,62,1,,
,,,,,P035,001,2025-04-01_00h20.32.444,Emotion.Memoire.2024,2024.1.5,MacIntel,60.24096386,,,,,,,,,,,,,,,IMAGES_EXP_mp4_40/ANIMEES/10- ANIMEES --NEGATIVES /Video1.mp4,,,,,,,,,,,,1547.6218,1552.1298,0.495356242,-0.326059977,1,0,0,4.4064,Vrai,0,63,63,63,1,,
,,,,,P035,001,2025-04-01_00h20.32.444,Emotion.Memoire.2024,2024.1.5,MacIntel,60.24096386,,,,,,,,,,,,,,,DISTRACTEURS-40/DIST.FIXES-20/10.NÉGATIFS/Dist.fix.negatif9.mp4,,,,,,,,,,,,1552.1308,1556.4973,-0.529393514,-0.291737874,1,0,0,4.2829,Faux,0,64,64,64,1,,
,,,,,P035,001,2025-04-01_00h20.32.444,Emotion.Memoire.2024,2024.1.5,MacIntel,60.24096386,,,,,,,,,,,,,,,DISTRACTEURS-40/DIST.FIXES-20/10.NÉGATIFS/Dist.fix.negatif2.mp4,,,,,,,,,,,,1556.4987,1583.2726,-0.484654744,-0.304575602,1,0,0,26.7406,Faux,0,65,65,65,1,,
,,,,,P035,001,2025-04-01_00h20.32.444,Emotion.Memoire.2024,2024.1.5,MacIntel,60.24096386,,,,,,,,,,,,,,,IMAGES_EXP_mp4_40/FIXES/FIX-NEUTRE-mp4/image10.mp4,,,,,,,,,,,,1583.2955,1586.0758,0.526575724,-0.326293945,1,0,0,2.6538,Vrai,0,66,66,66,1,,
,,,,,P035,001,2025-04-01_00h20.32.444,Emotion.Memoire.2024,2024.1.5,MacIntel,60.24096386,,,,,,,,,,,,,,,IMAGES_EXP_mp4_40/FIXES/FIX-NEGATIF-mp4/Image1.mp4,,,,,,,,,,,,1586.0782,1596.3303,-0.483784993,-0.311620076,1,0,0,10.1908,Faux,0,67,67,67,1,,
,,,,,P035,001,2025-04-01_00h20.32.444,Emotion.Memoire.2024,2024.1.5,MacIntel,60.24096386,,,,,,,,,,,,,,,IMAGES_EXP_mp4_40/ANIMEES/10- ANIMEES --NEGATIVES /Video3.mp4,,,,,,,,,,,,1596.3338,1613.172,-0.478347778,-0.306025187,1,0,0,16.5087,Faux,0,68,68,68,1,,
,,,,,P035,001,2025-04-01_00h20.32.444,Emotion.Memoire.2024,2024.1.5,MacIntel,60.24096386,,,,,,,,,,,,,,,DISTRACTEURS-40/DIST.FIXES-20/10.NEUTRES /Dist.fix.neutre1.mp4,,,,,,,,,,,,1613.4145,1617.209,-0.528325399,-0.306391398,1,0,0,3.6547,Faux,0,69,69,69,1,,
,,,,,P035,001,2025-04-01_00h20.32.444,Emotion.Memoire.2024,2024.1.5,MacIntel,60.24096386,,,,,,,,,,,,,,,DISTRACTEURS-40/DIST.FIXES-20/10.NÉGATIFS/Dist.fix.negatif3.mp4,,,,,,,,,,,,1617.2101,1658.2193,-0.467046102,-0.322458903,1,0,0,40.6118,Faux,0,70,70,70,1,,
,,,,,P035,001,2025-04-01_00h20.32.444,Emotion.Memoire.2024,2024.1.5,MacIntel,60.24096386,,,,,,,,,,,,,,,IMAGES_EXP_mp4_40/FIXES/FIX-NEUTRE-mp4/image3.mp4,,,,,,,,,,,,1658.225,1660.7941,0.510350545,-0.30976359,1,0,0,2.5382,Vrai,0,71,71,71,1,,
,,,,,P035,001,2025-04-01_00h20.32.444,Emotion.Memoire.2024,2024.1.5,MacIntel,60.24096386,,,,,,,,,,,,,,,IMAGES_EXP_mp4_40/FIXES/FIX-NEGATIF-mp4/Image10.mp4,,,,,,,,,,,,1660.7958,1662.1314,0.510350545,-0.30976359,1,0,0,1.3103,Vrai,0,72,72,72,1,,
,,,,,P035,001,2025-04-01_00h20.32.444,Emotion.Memoire.2024,2024.1.5,MacIntel,60.24096386,,,,,,,,,,,,,,,IMAGES_EXP_mp4_40/FIXES/FIX-NEUTRE-mp4/image1.mp4,,,,,,,,,,,,1662.1344,1664.3862,-0.50475057,-0.29258728,1,0,0,2.226,Faux,0,73,73,73,1,,
,,,,,P035,001,2025-04-01_00h20.32.444,Emotion.Memoire.2024,2024.1.5,MacIntel,60.24096386,,,,,,,,,,,,,,,DISTRACTEURS-40/DIST.ANIMÉES-20/10.NEUTRES/Dist.animee.neutre8.mp4,,,,,,,,,,,,1664.3878,1692.4053,-0.486526489,-0.313156128,1,0,0,27.995,Faux,0,74,74,74,1,,
,,,,,P035,001,2025-04-01_00h20.32.444,Emotion.Memoire.2024,2024.1.5,MacIntel,60.24096386,,,,,,,,,,,,,,,DISTRACTEURS-40/DIST.FIXES-20/10.NÉGATIFS/Dist.fix.negatif4.mp4,,,,,,,,,,,,1692.409,1694.769,-0.486526489,-0.313156128,1,0,0,2.3296,Faux,0,75,75,75,1,,
,,,,,P035,001,2025-04-01_00h20.32.444,Emotion.Memoire.2024,2024.1.5,MacIntel,60.24096386,,,,,,,,,,,,,,,DISTRACTEURS-40/DIST.ANIMÉES-20/10.NÉGATIFS/Dist.animee.negatif3.mp4,,,,,,,,,,,,1694.771,1728.5162,-0.482116699,-0.293451945,1,0,0,33.6859,Faux,0,76,76,76,1,,
,,,,,P035,001,2025-04-01_00h20.32.444,Emotion.Memoire.2024,2024.1.5,MacIntel,60.24096386,,,,,,,,,,,,,,,DISTRACTEURS-40/DIST.ANIMÉES-20/10.NEUTRES/Dist.animee.neutre2.mp4,,,,,,,,,,,,1728.5732,1731.4466,-0.482116699,-0.293451945,1,0,0,2.8279,Faux,0,77,77,77,1,,
,,,,,P035,001,2025-04-01_00h20.32.444,Emotion.Memoire.2024,2024.1.5,MacIntel,60.24096386,,,,,,,,,,,,,,,IMAGES_EXP_mp4_40/ANIMEES/10- ANIMEES --NEGATIVES /Video9.mp4,,,,,,,,,,,,1731.4492,1734.8793,0.496531169,-0.31707255,1,0,0,3.2567,Vrai,0,78,78,78,1,,
,,,,,P035,001,2025-04-01_00h20.32.444,Emotion.Memoire.2024,2024.1.5,MacIntel,60.24096386,,,,,,,,,,,,,,,DISTRACTEURS-40/DIST.ANIMÉES-20/10.NEUTRES/Dist.animee.neutre7.mp4,,,,,,,,,,,,1734.8818,1746.6818,-0.502909342,-0.300547282,1,0,0,11.7694,Faux,0,79,79,79,1,,
,,,,,P035,001,2025-04-01_00h20.32.444,Emotion.Memoire.2024,2024.1.5,MacIntel,60.24096386,,,,,,,,,,,,,,,,,,,,,,,,,,,,,,,,,,,,,,,,,1747.8588,1761.7186
